onset,duration,trial_type,stimulus,memory_condition,encode_phase,response,low_confidence_accuracy,high_confidence_accuracy,response_time,phase,source_memory
4.05,3.0,CS+,tools/camera.jpg,Old,baseline,DN,M,M,2.315,memory_run-01,baseline
18.317,3.0,CS+,tools/solderingtorch.jpg,Old,baseline,MO,H,M,1.725,memory_run-01,acquisition
240.533,3.0,CS+,tools/microwave.jpg,Old,baseline,DN,M,M,1.177,memory_run-01,extinction
270.067,3.0,CS+,tools/workbench.jpg,Old,baseline,MO,H,M,2.539,memory_run-01,acquisition
387.2,3.0,CS+,tools/edger.jpg,Old,baseline,DO,H,H,2.222,memory_run-01,baseline
441.233,3.0,CS+,tools/jumpercables.jpg,Old,baseline,MO,H,M,2.3409999999999997,memory_run-01,acquisition
540.0,3.0,CS+,tools/monkeywrench.jpg,Old,baseline,,M,M,,memory_run-01,extinction
547.133,3.0,CS+,tools/measuringtape.jpg,Old,baseline,DN,M,M,1.2309999999999999,memory_run-01,baseline
39.8,3.0,CS+,tools/videogamecontroller.jpg,Old,baseline,MO,H,M,1.6,memory_run-02,baseline
125.43299999999999,3.0,CS+,tools/duffelbag.jpg,Old,baseline,MN,M,M,1.325,memory_run-02,acquisition
239.71599999999998,3.0,CS+,tools/airpump.jpg,Old,baseline,MO,H,M,1.699,memory_run-02,baseline
261.1,3.0,CS+,tools/toaster.jpg,Old,baseline,DO,H,H,1.0590000000000002,memory_run-02,baseline
322.199,3.0,CS+,tools/squeegee.jpg,Old,baseline,MO,H,M,1.4680000000000002,memory_run-02,acquisition
362.88300000000004,3.0,CS+,tools/blower.jpg,Old,baseline,MN,M,M,1.923,memory_run-02,acquisition
533.683,3.0,CS+,tools/chainsaw.jpg,Old,baseline,DO,H,H,1.3159999999999998,memory_run-02,acquisition
541.816,3.0,CS+,tools/hammer.jpg,Old,baseline,MN,M,M,1.49,memory_run-02,baseline
46.967,3.0,CS+,tools/campingstove.jpg,Old,baseline,DN,M,M,1.399,memory_run-03,baseline
54.1,3.0,CS+,tools/carpetblower.jpg,Old,baseline,DO,H,H,1.3130000000000002,memory_run-03,baseline
161.267,3.0,CS+,tools/treadmill.jpg,Old,baseline,MN,M,M,1.6680000000000001,memory_run-03,extinction
275.517,3.0,CS+,tools/extensioncord.jpg,Old,baseline,DO,H,H,1.4409999999999998,memory_run-03,acquisition
330.467,3.0,CS+,tools/padlock.jpg,Old,baseline,DO,H,H,1.031,memory_run-03,acquisition
346.7,3.0,CS+,tools/bucket.jpg,Old,baseline,MN,M,M,1.348,memory_run-03,acquisition
533.7669999999998,3.0,CS+,tools/paintbrush.jpg,Old,baseline,MO,H,M,1.3259999999999998,memory_run-03,acquisition
541.9,3.0,CS+,tools/screwdriver.jpg,Old,baseline,MO,H,M,1.589,memory_run-03,extinction
118.26700000000001,3.0,CS+,tools/plow.jpg,Old,acquisition,DO,H,H,1.198,memory_run-01,acquisition
133.55,3.0,CS+,tools/faxmachine.jpg,Old,acquisition,MO,H,M,2.459,memory_run-01,baseline
225.25,3.0,CS+,tools/ropeandpulley.jpg,Old,acquisition,DO,H,H,1.071,memory_run-01,acquisition
247.667,3.0,CS+,tools/hairdryer.jpg,Old,acquisition,MN,M,M,1.561,memory_run-01,acquisition
380.05,3.0,CS+,tools/rollingpin.jpg,Old,acquisition,DO,H,H,1.4340000000000002,memory_run-01,baseline
456.51599999999996,3.0,CS+,tools/gardenhose.jpg,Old,acquisition,MN,M,M,2.135,memory_run-01,extinction
509.466,3.0,CS+,tools/scissors.jpg,Old,acquisition,MO,H,M,1.659,memory_run-01,extinction
516.6,3.0,CS+,tools/ladder.jpg,Old,acquisition,MO,H,M,2.5269999999999997,memory_run-01,acquisition
61.233000000000004,3.0,CS+,tools/shoehorn.jpg,Old,acquisition,DN,M,M,1.25,memory_run-02,extinction
139.716,3.0,CS+,tools/weldinghelmet.jpg,Old,acquisition,MN,M,M,1.811,memory_run-02,baseline
168.25,3.0,CS+,tools/stove.jpg,Old,acquisition,MO,H,M,1.575,memory_run-02,acquisition
246.85,3.0,CS+,tools/paintroller.jpg,Old,acquisition,MO,H,M,1.629,memory_run-02,baseline
346.599,3.0,CS+,tools/chisel.jpg,Old,acquisition,MN,M,M,1.381,memory_run-02,baseline
436.083,3.0,CS+,tools/rake.jpg,Old,acquisition,MO,H,M,1.2819999999999998,memory_run-02,extinction
501.166,3.0,CS+,tools/wheelbarrow.jpg,Old,acquisition,MO,H,M,2.147,memory_run-02,baseline
509.283,3.0,CS+,tools/pliers.jpg,Old,acquisition,MO,H,M,1.182,memory_run-02,extinction
75.517,3.0,CS+,tools/gong.jpg,Old,acquisition,MO,H,M,1.456,memory_run-03,acquisition
104.117,3.0,CS+,tools/beadingtool.jpg,Old,acquisition,MN,M,M,1.6269999999999998,memory_run-03,baseline
211.25,3.0,CS+,tools/reflexhammer.jpg,Old,acquisition,MN,M,M,2.0140000000000002,memory_run-03,extinction
232.667,3.0,CS+,tools/cheesegrater.jpg,Old,acquisition,DO,H,H,1.177,memory_run-03,acquisition
314.2,3.0,CS+,tools/plunger.jpg,Old,acquisition,MO,H,M,1.4409999999999998,memory_run-03,extinction
428.017,3.0,CS+,tools/transmissionwrench.jpg,Old,acquisition,MN,M,M,1.234,memory_run-03,acquisition
501.233,3.0,CS+,tools/drillbit.jpg,Old,acquisition,MO,H,M,1.3330000000000002,memory_run-03,baseline
509.36699999999996,3.0,CS+,tools/electricbreaker.jpg,Old,acquisition,MO,H,M,1.2109999999999999,memory_run-03,acquisition
41.766999999999996,3.0,CS+,tools/levelmount.jpg,Old,extinction,MN,M,M,1.992,memory_run-01,baseline
140.7,3.0,CS+,tools/blackboard.jpg,Old,extinction,DO,H,H,1.274,memory_run-01,acquisition
195.667,3.0,CS+,tools/sparkplug.jpg,Old,extinction,MO,H,M,1.35,memory_run-01,baseline
210.95,3.0,CS+,tools/fan.jpg,Old,extinction,MO,H,M,1.584,memory_run-01,acquisition
333.2,3.0,CS+,tools/thermometer.jpg,Old,extinction,MN,M,M,2.5660000000000003,memory_run-01,extinction
363.75,3.0,CS+,tools/measuringcups.jpg,Old,extinction,MO,H,M,1.854,memory_run-01,baseline
524.7330000000002,3.0,CS+,tools/broom.jpg,Old,extinction,MN,M,M,1.869,memory_run-01,baseline
532.85,3.0,CS+,tools/ruler.jpg,Old,extinction,MN,M,M,1.787,memory_run-01,baseline
54.1,3.0,CS+,tools/eraser.jpg,Old,extinction,MN,M,M,1.351,memory_run-02,baseline
82.633,3.0,CS+,tools/woodchipper.jpg,Old,extinction,MN,M,M,1.808,memory_run-02,acquisition
204.0,3.0,CS+,tools/routerplane.jpg,Old,extinction,MN,M,M,1.965,memory_run-02,baseline
275.383,3.0,CS+,tools/measuringdevice.jpg,Old,extinction,MO,H,M,1.724,memory_run-02,extinction
314.08299999999997,3.0,CS+,tools/weedeater.jpg,Old,extinction,MO,H,M,1.297,memory_run-02,acquisition
330.333,3.0,CS+,tools/lawnmower.jpg,Old,extinction,MO,H,M,1.425,memory_run-02,baseline
517.4159999999998,3.0,CS+,tools/spoon.jpg,Old,extinction,MN,M,M,1.65,memory_run-02,baseline
525.533,3.0,CS+,tools/wrench.jpg,Old,extinction,MO,H,M,1.2590000000000001,memory_run-02,baseline
96.96700000000001,3.0,CS+,tools/benchdogs.jpg,Old,extinction,MN,M,M,1.435,memory_run-03,baseline
132.7,3.0,CS+,tools/beaker.jpg,Old,extinction,MO,H,M,1.395,memory_run-03,extinction
239.817,3.0,CS+,tools/tubeflaring.jpg,Old,extinction,MN,M,M,1.569,memory_run-03,baseline
261.233,3.0,CS+,tools/sander.jpg,Old,extinction,MN,M,M,1.5230000000000001,memory_run-03,acquisition
403.63300000000004,3.0,CS+,tools/mallet.jpg,Old,extinction,MN,M,M,1.165,memory_run-03,extinction
436.13300000000004,3.0,CS+,tools/vegetablepeeler.jpg,Old,extinction,MO,H,M,1.31,memory_run-03,acquisition
517.5,3.0,CS+,tools/viceclamp.jpg,Old,extinction,MN,M,M,1.325,memory_run-03,extinction
525.633,3.0,CS+,tools/pruner.jpg,Old,extinction,MN,M,M,1.4269999999999998,memory_run-03,acquisition
48.917,3.0,CS+,tools/wateringcan.jpg,New,foil,DN,CR,CR,1.181,memory_run-01,
71.35,3.0,CS+,tools/burnisher.jpg,New,foil,DN,CR,CR,1.921,memory_run-01,
85.667,3.0,CS+,tools/grapplinghook.jpg,New,foil,DN,CR,CR,2.155,memory_run-01,
93.81700000000001,3.0,CS+,tools/lantern.jpg,New,foil,DN,CR,CR,1.98,memory_run-01,
232.4,3.0,CS+,tools/engine.jpg,New,foil,DN,CR,CR,2.253,memory_run-01,
254.8,3.0,CS+,tools/dremel.jpg,New,foil,MO,FA,CR,1.608,memory_run-01,
262.933,3.0,CS+,tools/level.jpg,New,foil,MN,CR,CR,1.75,memory_run-01,
300.65,3.0,CS+,tools/bolt.jpg,New,foil,MO,FA,CR,1.6280000000000001,memory_run-01,
308.783,3.0,CS+,tools/magnet.jpg,New,foil,DN,CR,CR,1.67,memory_run-01,
325.066,3.0,CS+,tools/mellonballer.jpg,New,foil,DN,CR,CR,1.571,memory_run-01,
395.35,3.0,CS+,tools/electricdrill.jpg,New,foil,MN,CR,CR,1.895,memory_run-01,
410.65,3.0,CS+,tools/keys.jpg,New,foil,DN,CR,CR,1.264,memory_run-01,
584.816,3.0,CS+,tools/caulkinggun.jpg,New,foil,MO,FA,CR,1.17,memory_run-01,
591.95,3.0,CS+,tools/whisk.jpg,New,foil,DN,CR,CR,1.024,memory_run-01,
600.1,3.0,CS+,tools/whistle.jpg,New,foil,MN,CR,CR,1.474,memory_run-01,
607.25,3.0,CS+,tools/microscope.jpg,New,foil,MO,FA,CR,1.318,memory_run-01,
25.5,3.0,CS+,tools/clamp.jpg,New,foil,MO,FA,CR,1.445,memory_run-02,
89.766,3.0,CS+,tools/carabiner.jpg,New,foil,DN,CR,CR,1.159,memory_run-02,
111.15,3.0,CS+,tools/snowbrush.jpg,New,foil,MN,CR,CR,1.21,memory_run-02,
132.583,3.0,CS+,tools/pizzacutter.jpg,New,foil,DN,CR,CR,1.3659999999999999,memory_run-02,
146.85,3.0,CS+,tools/anvil.jpg,New,foil,DN,CR,CR,1.29,memory_run-02,
182.55,3.0,CS+,tools/pick.jpg,New,foil,MN,CR,CR,1.74,memory_run-02,
218.283,3.0,CS+,tools/scratchawl.jpg,New,foil,MN,CR,CR,1.9140000000000001,memory_run-02,
268.25,3.0,CS+,tools/hedgeshears.jpg,New,foil,MN,CR,CR,1.4980000000000002,memory_run-02,
379.166,3.0,CS+,tools/laptop.jpg,New,foil,DN,CR,CR,1.182,memory_run-02,
411.68300000000005,3.0,CS+,tools/duster.jpg,New,foil,MN,CR,CR,1.078,memory_run-02,
427.949,3.0,CS+,tools/telephone.jpg,New,foil,MN,CR,CR,1.409,memory_run-02,
444.216,3.0,CS+,tools/sawblade.jpg,New,foil,MN,CR,CR,1.494,memory_run-02,
582.516,3.0,CS+,tools/flashlight.jpg,New,foil,MN,CR,CR,1.6980000000000002,memory_run-02,
590.633,3.0,CS+,tools/battery.jpg,New,foil,MN,CR,CR,1.6369999999999998,memory_run-02,
598.783,3.0,CS+,tools/razorblade.jpg,New,foil,DN,CR,CR,1.206,memory_run-02,
606.933,3.0,CS+,tools/stapler.jpg,New,foil,MO,FA,CR,1.551,memory_run-02,
4.05,3.0,CS+,tools/shovel.jpg,New,foil,MN,CR,CR,1.808,memory_run-03,
25.517,3.0,CS+,tools/watch.jpg,New,foil,DN,CR,CR,1.6280000000000001,memory_run-03,
82.667,3.0,CS+,tools/smartphone.jpg,New,foil,DN,CR,CR,1.276,memory_run-03,
111.26700000000001,3.0,CS+,tools/magnifyingglass.jpg,New,foil,MN,CR,CR,1.36,memory_run-03,
154.11700000000005,3.0,CS+,tools/crank.jpg,New,foil,MN,CR,CR,1.3530000000000002,memory_run-03,
197.0,3.0,CS+,tools/nailgun.jpg,New,foil,MO,FA,CR,1.5290000000000001,memory_run-03,
218.38400000000001,3.0,CS+,tools/cuttingboard.jpg,New,foil,DN,CR,CR,1.095,memory_run-03,
225.517,3.0,CS+,tools/vacuumcleaner.jpg,New,foil,DN,CR,CR,1.263,memory_run-03,
387.38300000000004,3.0,CS+,tools/compass.jpg,New,foil,DN,CR,CR,1.286,memory_run-03,
395.517,3.0,CS+,tools/stethoscope.jpg,New,foil,MO,FA,CR,1.5959999999999999,memory_run-03,
411.767,3.0,CS+,tools/staplegun.jpg,New,foil,MN,CR,CR,1.5330000000000001,memory_run-03,
419.88300000000004,3.0,CS+,tools/vicegrips.jpg,New,foil,DN,CR,CR,1.4080000000000001,memory_run-03,
582.6,3.0,CS+,tools/tape.jpg,New,foil,MO,FA,CR,1.983,memory_run-03,
590.75,3.0,CS+,tools/hourglass.jpg,New,foil,MN,CR,CR,1.21,memory_run-03,
598.9,3.0,CS+,tools/electricsewingmachine.jpg,New,foil,MO,FA,CR,1.8780000000000001,memory_run-03,
607.05,3.0,CS+,tools/clippers.jpg,New,foil,MN,CR,CR,1.6030000000000002,memory_run-03,
11.184000000000001,3.0,CS-,animals/caterpillarhawkmoth.jpg,Old,baseline,MO,H,M,2.909,memory_run-01,baseline
126.4,3.0,CS-,animals/hyena.jpg,Old,baseline,MN,M,M,1.285,memory_run-01,extinction
218.1,3.0,CS-,animals/cricket.jpg,Old,baseline,MO,H,M,1.73,memory_run-01,baseline
293.5,3.0,CS-,animals/goldfish.jpg,Old,baseline,MO,H,M,1.859,memory_run-01,baseline
418.8,3.0,CS-,animals/marmot.jpg,Old,baseline,DO,H,H,1.354,memory_run-01,extinction
449.366,3.0,CS-,animals/flamingo.jpg,Old,baseline,DO,H,H,1.537,memory_run-01,baseline
494.2,3.0,CS-,animals/shrimp.jpg,Old,baseline,DO,H,H,1.761,memory_run-01,baseline
501.333,3.0,CS-,animals/horse.jpg,Old,baseline,DN,M,M,1.996,memory_run-01,extinction
32.65,3.0,CS-,animals/halibut.jpg,Old,baseline,MO,H,M,1.3769999999999998,memory_run-02,baseline
118.28299999999999,3.0,CS-,animals/cranebug.jpg,Old,baseline,MO,H,M,1.274,memory_run-02,baseline
154.0,3.0,CS-,animals/starfish.jpg,Old,baseline,MO,H,M,1.8,memory_run-02,acquisition
189.7,3.0,CS-,animals/canary.jpg,Old,baseline,MN,M,M,1.574,memory_run-02,baseline
338.483,3.0,CS-,animals/perch.jpg,Old,baseline,MO,H,M,1.251,memory_run-02,baseline
387.283,3.0,CS-,animals/salmon.jpg,Old,baseline,MN,M,M,1.601,memory_run-02,baseline
484.916,3.0,CS-,animals/racoon.jpg,Old,baseline,MO,H,M,1.364,memory_run-02,extinction
493.033,3.0,CS-,animals/cat.jpg,Old,baseline,MN,M,M,1.976,memory_run-02,baseline
32.667,3.0,CS-,animals/aardvark.jpg,Old,baseline,MN,M,M,1.349,memory_run-03,baseline
118.417,3.0,CS-,animals/zebra.jpg,Old,baseline,MO,H,M,1.375,memory_run-03,baseline
146.967,3.0,CS-,animals/skunk.jpg,Old,baseline,MO,H,M,1.266,memory_run-03,baseline
175.567,3.0,CS-,animals/finch.jpg,Old,baseline,MO,H,M,1.4780000000000002,memory_run-03,baseline
297.9170000000001,3.0,CS-,animals/reindeer.jpg,Old,baseline,MO,H,M,1.409,memory_run-03,baseline
322.33299999999997,3.0,CS-,animals/llama.jpg,Old,baseline,MN,M,M,1.742,memory_run-03,baseline
484.967,3.0,CS-,animals/rhino.jpg,Old,baseline,MO,H,M,1.565,memory_run-03,baseline
493.083,3.0,CS-,animals/elephantafrican.jpg,Old,baseline,MO,H,M,1.4880000000000002,memory_run-03,extinction
56.067,3.0,CS-,animals/caterpillarpeacockmoth.jpg,Old,acquisition,MO,H,M,1.6130000000000002,memory_run-01,extinction
148.833,3.0,CS-,animals/mole.jpg,Old,acquisition,DN,M,M,2.0140000000000002,memory_run-01,baseline
163.1,3.0,CS-,animals/boar.jpg,Old,acquisition,DO,H,H,2.194,memory_run-01,extinction
187.517,3.0,CS-,animals/gerbil.jpg,Old,acquisition,DO,H,H,2.021,memory_run-01,extinction
340.316,3.0,CS-,animals/porcupine.jpg,Old,acquisition,MN,M,M,1.881,memory_run-01,acquisition
355.6,3.0,CS-,animals/pelican.jpg,Old,acquisition,MN,M,M,1.4380000000000002,memory_run-01,baseline
463.65,3.0,CS-,animals/giraffe.jpg,Old,acquisition,DN,M,M,2.494,memory_run-01,extinction
470.783,3.0,CS-,animals/pigeon.jpg,Old,acquisition,MO,H,M,1.599,memory_run-01,acquisition
46.95,3.0,CS-,animals/herculesbeetle.jpg,Old,acquisition,DO,H,H,1.074,memory_run-02,acquisition
96.9,3.0,CS-,animals/quail.jpg,Old,acquisition,MO,H,M,1.119,memory_run-02,extinction
161.116,3.0,CS-,animals/snapper.jpg,Old,acquisition,MO,H,M,1.379,memory_run-02,baseline
282.533,3.0,CS-,animals/hummingbird.jpg,Old,acquisition,MN,M,M,1.6869999999999998,memory_run-02,extinction
354.733,3.0,CS-,animals/waterbuffalo.jpg,Old,acquisition,MN,M,M,1.757,memory_run-02,extinction
419.79900000000004,3.0,CS-,animals/baboon.jpg,Old,acquisition,DO,H,H,1.456,memory_run-02,acquisition
452.349,3.0,CS-,animals/leopard.jpg,Old,acquisition,MN,M,M,1.7,memory_run-02,baseline
460.483,3.0,CS-,animals/cow.jpg,Old,acquisition,MO,H,M,1.324,memory_run-02,baseline
11.217,3.0,CS-,animals/flea.jpg,Old,acquisition,MO,H,M,1.344,memory_run-03,acquisition
125.56700000000001,3.0,CS-,animals/dragonfly.jpg,Old,acquisition,MO,H,M,1.112,memory_run-03,extinction
168.417,3.0,CS-,animals/angelfish.jpg,Old,acquisition,MN,M,M,1.4040000000000001,memory_run-03,baseline
246.967,3.0,CS-,animals/prayingmantis.jpg,Old,acquisition,MN,M,M,1.317,memory_run-03,extinction
306.067,3.0,CS-,animals/pike.jpg,Old,acquisition,MN,M,M,1.445,memory_run-03,baseline
362.967,3.0,CS-,animals/crow.jpg,Old,acquisition,MO,H,M,1.385,memory_run-03,acquisition
452.4,3.0,CS-,animals/ostrich.jpg,Old,acquisition,MO,H,M,1.565,memory_run-03,extinction
460.55,3.0,CS-,animals/tiger.jpg,Old,acquisition,MO,H,M,1.12,memory_run-03,baseline
64.217,3.0,CS-,animals/firebug.jpg,Old,extinction,MO,H,M,2.031,memory_run-01,acquisition
110.117,3.0,CS-,animals/mahimahi.jpg,Old,extinction,MO,H,M,1.2919999999999998,memory_run-01,extinction
171.25,3.0,CS-,animals/herring.jpg,Old,extinction,DO,H,H,1.561,memory_run-01,acquisition
285.35,3.0,CS-,animals/dramaderry.jpg,Old,extinction,DN,M,M,2.773,memory_run-01,extinction
316.95,3.0,CS-,animals/camel.jpg,Old,extinction,MN,M,M,2.444,memory_run-01,acquisition
403.5,3.0,CS-,animals/mink.jpg,Old,extinction,DO,H,H,1.5930000000000002,memory_run-01,extinction
478.916,3.0,CS-,animals/mouse.jpg,Old,extinction,MO,H,M,1.59,memory_run-01,acquisition
486.05,3.0,CS-,animals/sheep.jpg,Old,extinction,DN,M,M,1.94,memory_run-01,extinction
4.05,3.0,CS-,animals/partridge.jpg,Old,extinction,MN,M,M,1.358,memory_run-02,extinction
11.2,3.0,CS-,animals/anteater.jpg,Old,extinction,DO,H,H,1.601,memory_run-02,acquisition
175.4,3.0,CS-,animals/carp.jpg,Old,extinction,MN,M,M,1.1909999999999998,memory_run-02,baseline
253.96599999999998,3.0,CS-,animals/turkey.jpg,Old,extinction,MO,H,M,1.618,memory_run-02,baseline
395.416,3.0,CS-,animals/chipmunk.jpg,Old,extinction,MO,H,M,1.412,memory_run-02,extinction
403.54900000000004,3.0,CS-,animals/seal.jpg,Old,extinction,MN,M,M,1.431,memory_run-02,acquisition
468.63300000000004,3.0,CS-,animals/brown_bear.jpg,Old,extinction,MN,M,M,1.247,memory_run-02,baseline
476.76599999999996,3.0,CS-,animals/rabbit.jpg,Old,extinction,DO,H,H,1.321,memory_run-02,extinction
18.367,3.0,CS-,animals/assassinbug.jpg,Old,extinction,MN,M,M,1.785,memory_run-03,extinction
61.233999999999995,3.0,CS-,animals/catfish.jpg,Old,extinction,MO,H,M,1.102,memory_run-03,acquisition
268.383,3.0,CS-,animals/palmcockatoo.jpg,Old,extinction,MN,M,M,1.383,memory_run-03,extinction
282.6670000000001,3.0,CS-,animals/ant.jpg,Old,extinction,MO,H,M,1.1,memory_run-03,acquisition
379.267,3.0,CS-,animals/snail.jpg,Old,extinction,MN,M,M,1.5819999999999999,memory_run-03,baseline
444.25,3.0,CS-,animals/baldeagle.jpg,Old,extinction,DO,H,H,1.4980000000000002,memory_run-03,extinction
468.7,3.0,CS-,animals/duck.jpg,Old,extinction,MO,H,M,1.524,memory_run-03,extinction
476.833,3.0,CS-,animals/shark.jpg,Old,extinction,MO,H,M,1.2,memory_run-03,extinction
25.467,3.0,CS-,animals/koala.jpg,New,foil,MN,CR,CR,1.565,memory_run-01,
33.617,3.0,CS-,animals/woodlouse.jpg,New,foil,DN,CR,CR,1.9080000000000001,memory_run-01,
78.517,3.0,CS-,animals/highlandcow.jpg,New,foil,MN,CR,CR,1.581,memory_run-01,
101.96700000000001,3.0,CS-,animals/monkey.jpg,New,foil,MO,FA,CR,1.625,memory_run-01,
155.967,3.0,CS-,animals/tortoise.jpg,New,foil,DN,CR,CR,2.043,memory_run-01,
179.38299999999995,3.0,CS-,animals/waterdragon.jpg,New,foil,MN,CR,CR,2.25,memory_run-01,
202.8,3.0,CS-,animals/ladybug.jpg,New,foil,MN,CR,CR,1.635,memory_run-01,
277.217,3.0,CS-,animals/octopus.jpg,New,foil,MO,FA,CR,2.5660000000000003,memory_run-01,
347.45,3.0,CS-,animals/panda.jpg,New,foil,MN,CR,CR,1.325,memory_run-01,
371.9,3.0,CS-,animals/stickinsect.jpg,New,foil,MN,CR,CR,2.108,memory_run-01,
425.95,3.0,CS-,animals/balloonfish.jpg,New,foil,MN,CR,CR,1.7409999999999999,memory_run-01,
433.1,3.0,CS-,animals/hermitcrab.jpg,New,foil,DN,CR,CR,1.046,memory_run-01,
554.266,3.0,CS-,animals/seaslug.jpg,New,foil,DN,CR,CR,1.026,memory_run-01,
562.4159999999998,3.0,CS-,animals/flounder.jpg,New,foil,MO,FA,CR,1.168,memory_run-01,
570.55,3.0,CS-,animals/crane.jpg,New,foil,MN,CR,CR,1.176,memory_run-01,
577.7,3.0,CS-,animals/bullfrog.jpg,New,foil,DN,CR,CR,1.4509999999999998,memory_run-01,
18.35,3.0,CS-,animals/rooster.jpg,New,foil,MN,CR,CR,1.17,memory_run-02,
68.366,3.0,CS-,animals/wasp.jpg,New,foil,DN,CR,CR,1.422,memory_run-02,
75.5,3.0,CS-,animals/slug.jpg,New,foil,DN,CR,CR,1.127,memory_run-02,
104.03299999999999,3.0,CS-,animals/stinkbug.jpg,New,foil,MO,FA,CR,1.194,memory_run-02,
196.85,3.0,CS-,animals/crab.jpg,New,foil,DN,CR,CR,1.575,memory_run-02,
211.13299999999998,3.0,CS-,animals/malaysianjunglenymph.jpg,New,foil,MN,CR,CR,1.3030000000000002,memory_run-02,
225.416,3.0,CS-,animals/orangutan.jpg,New,foil,DN,CR,CR,1.845,memory_run-02,
232.56599999999997,3.0,CS-,animals/owl.jpg,New,foil,MO,FA,CR,1.12,memory_run-02,
289.683,3.0,CS-,animals/earthworm.jpg,New,foil,MN,CR,CR,1.72,memory_run-02,
297.816,3.0,CS-,animals/armadillo.jpg,New,foil,DN,CR,CR,1.716,memory_run-02,
305.949,3.0,CS-,animals/caracal.jpg,New,foil,MO,FA,CR,2.0709999999999997,memory_run-02,
371.033,3.0,CS-,animals/dove.jpg,New,foil,MN,CR,CR,1.482,memory_run-02,
549.966,3.0,CS-,animals/beardeddragon.jpg,New,foil,MO,FA,CR,1.365,memory_run-02,
558.0830000000002,3.0,CS-,animals/tragopan.jpg,New,foil,MN,CR,CR,1.6909999999999998,memory_run-02,
566.2330000000002,3.0,CS-,animals/marlin.jpg,New,foil,MN,CR,CR,1.9040000000000001,memory_run-02,
574.383,3.0,CS-,animals/leafinsect.jpg,New,foil,MN,CR,CR,2.184,memory_run-02,
39.817,3.0,CS-,animals/deer.jpg,New,foil,DN,CR,CR,1.183,memory_run-03,
68.367,3.0,CS-,animals/clownfish.jpg,New,foil,MN,CR,CR,1.082,memory_run-03,
89.81700000000002,3.0,CS-,animals/toucan.jpg,New,foil,DN,CR,CR,1.7169999999999999,memory_run-03,
139.834,3.0,CS-,animals/penguin.jpg,New,foil,MO,FA,CR,1.726,memory_run-03,
182.717,3.0,CS-,animals/lion.jpg,New,foil,MO,FA,CR,1.163,memory_run-03,
189.86700000000002,3.0,CS-,animals/dockbug2.jpg,New,foil,MO,FA,CR,1.31,memory_run-03,
204.13400000000001,3.0,CS-,animals/ibises.jpg,New,foil,MN,CR,CR,1.163,memory_run-03,
254.1,3.0,CS-,animals/cod.jpg,New,foil,MN,CR,CR,1.202,memory_run-03,
289.783,3.0,CS-,animals/gecko.jpg,New,foil,MN,CR,CR,1.298,memory_run-03,
338.583,3.0,CS-,animals/lobsterspiny.jpg,New,foil,MN,CR,CR,1.493,memory_run-03,
354.833,3.0,CS-,animals/clam.jpg,New,foil,DN,CR,CR,1.462,memory_run-03,
371.11699999999996,3.0,CS-,animals/lizard.jpg,New,foil,MN,CR,CR,1.175,memory_run-03,
550.05,3.0,CS-,animals/macaw.jpg,New,foil,MO,FA,CR,1.599,memory_run-03,
558.2,3.0,CS-,animals/emu.jpg,New,foil,MN,CR,CR,1.391,memory_run-03,
566.3330000000002,3.0,CS-,animals/vulture.jpg,New,foil,MN,CR,CR,1.251,memory_run-03,
574.467,3.0,CS-,animals/kangaroo.jpg,New,foil,MN,CR,CR,1.511,memory_run-03,
