index,onset,duration,trial_type,stimulus,memory_condition,encode_phase,response,low_confidence_accuracy,high_confidence_accuracy,response_time,phase,source_memory
2,19.167,3.0,CS+,tools/measuringtape.jpg,Old,baseline,DO,H,H,1.746,memory_run-01,acquisition
4,34.3,3.0,CS+,tools/microwave.jpg,Old,baseline,DO,H,H,1.208,memory_run-01,acquisition
23,178.667,3.0,CS+,tools/solderingtorch.jpg,Old,baseline,DO,H,H,2.555,memory_run-01,acquisition
36,275.65,3.0,CS+,tools/edger.jpg,Old,baseline,DO,H,H,2.261,memory_run-01,acquisition
45,343.25,3.0,CS+,tools/camera.jpg,Old,baseline,DO,H,H,0.928,memory_run-01,acquisition
58,443.267,3.0,CS+,tools/jumpercables.jpg,Old,baseline,DO,H,H,0.948,memory_run-01,acquisition
61,465.467,3.0,CS+,tools/workbench.jpg,Old,baseline,DO,H,H,0.938,memory_run-01,acquisition
72,548.351,3.0,CS+,tools/monkeywrench.jpg,Old,baseline,DO,H,H,1.136,memory_run-01,acquisition
95,110.217,3.0,CS+,tools/airpump.jpg,Old,baseline,DO,H,H,1.285,memory_run-02,acquisition
97,124.417,3.0,CS+,tools/duffelbag.jpg,Old,baseline,DO,H,H,1.41,memory_run-02,acquisition
105,180.983,3.0,CS+,tools/hammer.jpg,Old,baseline,DO,H,H,1.814,memory_run-02,acquisition
114,244.6,3.0,CS+,tools/squeegee.jpg,Old,baseline,DO,H,H,1.101,memory_run-02,extinction
125,327.383,3.0,CS+,tools/toaster.jpg,Old,baseline,MN,M,M,2.415,memory_run-02,extinction
136,416.18300000000005,3.0,CS+,tools/videogamecontroller.jpg,Old,baseline,DO,H,H,1.405,memory_run-02,acquisition
141,456.583,3.0,CS+,tools/chainsaw.jpg,Old,baseline,DO,H,H,1.237,memory_run-02,baseline
152,545.484,3.0,CS+,tools/blower.jpg,Old,baseline,DN,M,M,1.442,memory_run-02,extinction
172,88.98299999999998,3.0,CS+,tools/bucket.jpg,Old,baseline,MO,H,M,1.856,memory_run-03,baseline
177,124.383,3.0,CS+,tools/screwdriver.jpg,Old,baseline,DO,H,H,1.267,memory_run-03,acquisition
181,152.717,3.0,CS+,tools/extensioncord.jpg,Old,baseline,MO,H,M,1.757,memory_run-03,acquisition
193,237.783,3.0,CS+,tools/carpetblower.jpg,Old,baseline,DO,H,H,1.347,memory_run-03,extinction
208,351.917,3.0,CS+,tools/treadmill.jpg,Old,baseline,DO,H,H,0.843,memory_run-03,acquisition
213,392.317,3.0,CS+,tools/padlock.jpg,Old,baseline,DO,H,H,0.926,memory_run-03,acquisition
220,448.833,3.0,CS+,tools/campingstove.jpg,Old,baseline,DO,H,H,1.948,memory_run-03,extinction
228,513.467,3.0,CS+,tools/paintbrush.jpg,Old,baseline,DO,H,H,0.991,memory_run-03,acquisition
7,57.5,3.0,CS+,tools/gardenhose.jpg,Old,acquisition,DO,H,H,1.181,memory_run-01,acquisition
10,79.717,3.0,CS+,tools/rollingpin.jpg,Old,acquisition,DO,H,H,1.188,memory_run-01,acquisition
29,224.167,3.0,CS+,tools/hairdryer.jpg,Old,acquisition,DO,H,H,1.152,memory_run-01,acquisition
31,238.3,3.0,CS+,tools/scissors.jpg,Old,acquisition,DO,H,H,1.796,memory_run-01,baseline
42,322.05,3.0,CS+,tools/faxmachine.jpg,Old,acquisition,DO,H,H,1.695,memory_run-01,acquisition
48,367.484,3.0,CS+,tools/ropeandpulley.jpg,Old,acquisition,DO,H,H,0.902,memory_run-01,acquisition
74,563.5169999999998,3.0,CS+,tools/plow.jpg,Old,acquisition,DO,H,H,1.035,memory_run-01,acquisition
77,586.717,3.0,CS+,tools/ladder.jpg,Old,acquisition,DO,H,H,0.963,memory_run-01,acquisition
81,11.1,3.0,CS+,tools/rake.jpg,Old,acquisition,DO,H,H,0.983,memory_run-02,acquisition
84,32.35,3.0,CS+,tools/wheelbarrow.jpg,Old,acquisition,MO,H,M,1.825,memory_run-02,acquisition
113,237.517,3.0,CS+,tools/weldinghelmet.jpg,Old,acquisition,DO,H,H,1.091,memory_run-02,acquisition
116,258.717,3.0,CS+,tools/chisel.jpg,Old,acquisition,DO,H,H,1.132,memory_run-02,acquisition
121,295.083,3.0,CS+,tools/paintroller.jpg,Old,acquisition,DO,H,H,0.943,memory_run-02,acquisition
128,351.583,3.0,CS+,tools/shoehorn.jpg,Old,acquisition,DO,H,H,1.296,memory_run-02,acquisition
140,448.5,3.0,CS+,tools/stove.jpg,Old,acquisition,DO,H,H,1.117,memory_run-02,acquisition
156,577.817,3.0,CS+,tools/pliers.jpg,Old,acquisition,MO,H,M,1.711,memory_run-02,acquisition
171,81.917,3.0,CS+,tools/drillbit.jpg,Old,acquisition,DO,H,H,0.894,memory_run-03,acquisition
178,131.45,3.0,CS+,tools/plunger.jpg,Old,acquisition,DO,H,H,0.735,memory_run-03,acquisition
180,145.61700000000005,3.0,CS+,tools/transmissionwrench.jpg,Old,acquisition,MN,M,M,1.726,memory_run-03,extinction
197,266.083,3.0,CS+,tools/cheesegrater.jpg,Old,acquisition,DO,H,H,0.7859999999999999,memory_run-03,acquisition
201,295.367,3.0,CS+,tools/gong.jpg,Old,acquisition,DO,H,H,0.782,memory_run-03,acquisition
218,432.68300000000005,3.0,CS+,tools/electricbreaker.jpg,Old,acquisition,DO,H,H,0.957,memory_run-03,acquisition
226,497.3,3.0,CS+,tools/reflexhammer.jpg,Old,acquisition,DO,H,H,1.239,memory_run-03,acquisition
231,537.7,3.0,CS+,tools/beadingtool.jpg,Old,acquisition,DO,H,H,1.286,memory_run-03,acquisition
11,86.8,3.0,CS+,tools/blackboard.jpg,Old,extinction,DO,H,H,1.197,memory_run-01,acquisition
12,94.884,3.0,CS+,tools/measuringcups.jpg,Old,extinction,MO,H,M,2.185,memory_run-01,acquisition
22,171.584,3.0,CS+,tools/ruler.jpg,Old,extinction,DN,M,M,1.175,memory_run-01,extinction
38,291.767,3.0,CS+,tools/broom.jpg,Old,extinction,DO,H,H,0.91,memory_run-01,acquisition
43,329.117,3.0,CS+,tools/fan.jpg,Old,extinction,DO,H,H,1.7,memory_run-01,acquisition
49,375.55,3.0,CS+,tools/thermometer.jpg,Old,extinction,DO,H,H,1.103,memory_run-01,acquisition
68,518.034,3.0,CS+,tools/sparkplug.jpg,Old,extinction,DO,H,H,1.338,memory_run-01,acquisition
69,525.117,3.0,CS+,tools/levelmount.jpg,Old,extinction,DO,H,H,1.346,memory_run-01,acquisition
82,18.166,3.0,CS+,tools/lawnmower.jpg,Old,extinction,DO,H,H,0.8420000000000001,memory_run-02,acquisition
87,53.583,3.0,CS+,tools/spoon.jpg,Old,extinction,DO,H,H,1.279,memory_run-02,acquisition
102,159.783,3.0,CS+,tools/eraser.jpg,Old,extinction,DN,M,M,1.214,memory_run-02,baseline
115,251.667,3.0,CS+,tools/woodchipper.jpg,Old,extinction,DO,H,H,1.263,memory_run-02,acquisition
123,311.233,3.0,CS+,tools/routerplane.jpg,Old,extinction,DO,H,H,1.027,memory_run-02,acquisition
134,400.05,3.0,CS+,tools/measuringdevice.jpg,Old,extinction,MO,H,M,1.98,memory_run-02,extinction
143,472.75,3.0,CS+,tools/wrench.jpg,Old,extinction,DO,H,H,2.333,memory_run-02,acquisition
145,488.916,3.0,CS+,tools/weedeater.jpg,Old,extinction,MN,M,M,2.789,memory_run-02,acquisition
169,67.733,3.0,CS+,tools/vegetablepeeler.jpg,Old,extinction,DO,H,H,1.186,memory_run-03,baseline
175,110.233,3.0,CS+,tools/viceclamp.jpg,Old,extinction,DO,H,H,1.781,memory_run-03,acquisition
183,166.917,3.0,CS+,tools/mallet.jpg,Old,extinction,MO,H,M,2.086,memory_run-03,extinction
187,195.317,3.0,CS+,tools/sander.jpg,Old,extinction,DO,H,H,1.751,memory_run-03,extinction
215,408.467,3.0,CS+,tools/beaker.jpg,Old,extinction,DO,H,H,1.638,memory_run-03,acquisition
219,440.767,3.0,CS+,tools/benchdogs.jpg,Old,extinction,DO,H,H,1.011,memory_run-03,acquisition
233,553.85,3.0,CS+,tools/tubeflaring.jpg,Old,extinction,MO,H,M,2.202,memory_run-03,extinction
235,570.034,3.0,CS+,tools/pruner.jpg,Old,extinction,MO,H,M,1.982,memory_run-03,baseline
5,42.367,3.0,CS+,tools/whistle.jpg,New,foil,MN,CR,CR,2.617,memory_run-01,
13,102.984,3.0,CS+,tools/engine.jpg,New,foil,MO,FA,CR,2.509,memory_run-01,
18,141.317,3.0,CS+,tools/keys.jpg,New,foil,MN,CR,CR,2.79,memory_run-01,
19,148.384,3.0,CS+,tools/caulkinggun.jpg,New,foil,MO,FA,CR,2.38,memory_run-01,
20,156.434,3.0,CS+,tools/wateringcan.jpg,New,foil,MN,CR,CR,2.319,memory_run-01,
21,164.517,3.0,CS+,tools/dremel.jpg,New,foil,DN,CR,CR,2.2840000000000003,memory_run-01,
25,192.834,3.0,CS+,tools/whisk.jpg,New,foil,DN,CR,CR,1.4280000000000002,memory_run-01,
30,231.234,3.0,CS+,tools/level.jpg,New,foil,MO,FA,CR,1.362,memory_run-01,
44,336.167,3.0,CS+,tools/microscope.jpg,New,foil,MN,CR,CR,2.189,memory_run-01,
51,389.717,3.0,CS+,tools/mellonballer.jpg,New,foil,MN,CR,CR,1.739,memory_run-01,
53,404.884,3.0,CS+,tools/electricdrill.jpg,New,foil,MO,FA,CR,2.261,memory_run-01,
59,451.334,3.0,CS+,tools/grapplinghook.jpg,New,foil,DN,CR,CR,1.679,memory_run-01,
62,473.551,3.0,CS+,tools/bolt.jpg,New,foil,DO,FA,FA,0.936,memory_run-01,
64,487.717,3.0,CS+,tools/lantern.jpg,New,foil,DO,FA,FA,2.762,memory_run-01,
71,540.284,3.0,CS+,tools/burnisher.jpg,New,foil,MN,CR,CR,1.822,memory_run-01,
79,602.9,3.0,CS+,tools/magnet.jpg,New,foil,MN,CR,CR,2.307,memory_run-01,
89,67.733,3.0,CS+,tools/razorblade.jpg,New,foil,DN,CR,CR,1.376,memory_run-02,
92,89.0,3.0,CS+,tools/stapler.jpg,New,foil,MN,CR,CR,2.096,memory_run-02,
93,96.067,3.0,CS+,tools/duster.jpg,New,foil,DN,CR,CR,1.591,memory_run-02,
99,138.567,3.0,CS+,tools/carabiner.jpg,New,foil,DN,CR,CR,2.298,memory_run-02,
101,152.717,3.0,CS+,tools/telephone.jpg,New,foil,MO,FA,CR,2.645,memory_run-02,
108,202.167,3.0,CS+,tools/pizzacutter.jpg,New,foil,MN,CR,CR,1.717,memory_run-02,
109,209.233,3.0,CS+,tools/sawblade.jpg,New,foil,DN,CR,CR,1.263,memory_run-02,
119,279.933,3.0,CS+,tools/hedgeshears.jpg,New,foil,MN,CR,CR,2.488,memory_run-02,
122,303.15,3.0,CS+,tools/battery.jpg,New,foil,MO,FA,CR,2.371,memory_run-02,
124,319.3,3.0,CS+,tools/snowbrush.jpg,New,foil,MN,CR,CR,2.619,memory_run-02,
126,335.43300000000005,3.0,CS+,tools/flashlight.jpg,New,foil,MO,FA,CR,2.14,memory_run-02,
135,408.117,3.0,CS+,tools/anvil.jpg,New,foil,MO,FA,CR,2.812,memory_run-02,
149,521.25,3.0,CS+,tools/clamp.jpg,New,foil,MO,FA,CR,1.737,memory_run-02,
155,569.75,3.0,CS+,tools/laptop.jpg,New,foil,DN,CR,CR,1.99,memory_run-02,
158,593.95,3.0,CS+,tools/pick.jpg,New,foil,MO,FA,CR,2.283,memory_run-02,
159,602.034,3.0,CS+,tools/scratchawl.jpg,New,foil,MN,CR,CR,1.96,memory_run-02,
161,11.1,3.0,CS+,tools/vicegrips.jpg,New,foil,MO,FA,CR,1.347,memory_run-03,
164,32.317,3.0,CS+,tools/vacuumcleaner.jpg,New,foil,DN,CR,CR,1.188,memory_run-03,
167,53.567,3.0,CS+,tools/hourglass.jpg,New,foil,MN,CR,CR,1.922,memory_run-03,
176,117.317,3.0,CS+,tools/nailgun.jpg,New,foil,MN,CR,CR,1.814,memory_run-03,
184,174.017,3.0,CS+,tools/shovel.jpg,New,foil,DO,FA,FA,0.8859999999999999,memory_run-03,
192,230.717,3.0,CS+,tools/cuttingboard.jpg,New,foil,DN,CR,CR,1.466,memory_run-03,
194,244.85,3.0,CS+,tools/compass.jpg,New,foil,DN,CR,CR,1.683,memory_run-03,
196,259.0,3.0,CS+,tools/clippers.jpg,New,foil,MO,FA,CR,1.954,memory_run-03,
200,287.3,3.0,CS+,tools/stethoscope.jpg,New,foil,MO,FA,CR,2.262,memory_run-03,
203,311.5,3.0,CS+,tools/electricsewingmachine.jpg,New,foil,MO,FA,CR,1.872,memory_run-03,
204,319.583,3.0,CS+,tools/staplegun.jpg,New,foil,MO,FA,CR,2.753,memory_run-03,
214,400.4,3.0,CS+,tools/smartphone.jpg,New,foil,DN,CR,CR,1.2819999999999998,memory_run-03,
223,473.067,3.0,CS+,tools/crank.jpg,New,foil,MO,FA,CR,2.3480000000000003,memory_run-03,
224,481.133,3.0,CS+,tools/tape.jpg,New,foil,MO,FA,CR,2.505,memory_run-03,
232,545.783,3.0,CS+,tools/watch.jpg,New,foil,MN,CR,CR,2.062,memory_run-03,
236,578.1,3.0,CS+,tools/magnifyingglass.jpg,New,foil,MO,FA,CR,2.04,memory_run-03,
0,4.034,3.0,CS-,animals/goldfish.jpg,Old,baseline,DO,H,H,1.656,memory_run-01,baseline
8,65.584,3.0,CS-,animals/marmot.jpg,Old,baseline,MO,H,M,1.994,memory_run-01,baseline
26,199.9,3.0,CS-,animals/hyena.jpg,Old,baseline,DO,H,H,1.429,memory_run-01,baseline
35,268.584,3.0,CS-,animals/shrimp.jpg,Old,baseline,DO,H,H,1.344,memory_run-01,acquisition
47,359.4,3.0,CS-,animals/cricket.jpg,Old,baseline,DO,H,H,1.111,memory_run-01,extinction
55,419.017,3.0,CS-,animals/horse.jpg,Old,baseline,MO,H,M,2.888,memory_run-01,acquisition
75,571.5840000000002,3.0,CS-,animals/caterpillarhawkmoth.jpg,Old,baseline,MO,H,M,1.78,memory_run-01,baseline
78,594.8,3.0,CS-,animals/flamingo.jpg,Old,baseline,DO,H,H,0.925,memory_run-01,baseline
83,25.267,3.0,CS-,animals/starfish.jpg,Old,baseline,DO,H,H,1.004,memory_run-02,acquisition
91,81.917,3.0,CS-,animals/halibut.jpg,Old,baseline,DO,H,H,1.275,memory_run-02,baseline
106,188.05,3.0,CS-,animals/canary.jpg,Old,baseline,DO,H,H,1.646,memory_run-02,acquisition
112,230.433,3.0,CS-,animals/cranebug.jpg,Old,baseline,DO,H,H,1.032,memory_run-02,acquisition
137,424.267,3.0,CS-,animals/cat.jpg,Old,baseline,DO,H,H,1.197,memory_run-02,acquisition
139,440.417,3.0,CS-,animals/perch.jpg,Old,baseline,DO,H,H,1.751,memory_run-02,extinction
144,480.834,3.0,CS-,animals/salmon.jpg,Old,baseline,MO,H,M,1.0759999999999998,memory_run-02,acquisition
146,497.0,3.0,CS-,animals/racoon.jpg,Old,baseline,DO,H,H,1.044,memory_run-02,acquisition
179,138.533,3.0,CS-,animals/finch.jpg,Old,baseline,DO,H,H,0.8859999999999999,memory_run-03,acquisition
182,159.817,3.0,CS-,animals/zebra.jpg,Old,baseline,DO,H,H,0.973,memory_run-03,baseline
185,181.117,3.0,CS-,animals/reindeer.jpg,Old,baseline,DO,H,H,0.8009999999999999,memory_run-03,acquisition
195,251.917,3.0,CS-,animals/llama.jpg,Old,baseline,MO,H,M,1.504,memory_run-03,extinction
206,335.75,3.0,CS-,animals/elephantafrican.jpg,Old,baseline,DO,H,H,1.272,memory_run-03,acquisition
217,424.617,3.0,CS-,animals/rhino.jpg,Old,baseline,DO,H,H,1.009,memory_run-03,extinction
225,489.217,3.0,CS-,animals/aardvark.jpg,Old,baseline,MO,H,M,1.721,memory_run-03,extinction
239,602.3340000000002,3.0,CS-,animals/skunk.jpg,Old,baseline,DO,H,H,0.964,memory_run-03,extinction
1,11.117,3.0,CS-,animals/gerbil.jpg,Old,acquisition,DO,H,H,1.412,memory_run-01,baseline
6,49.434,3.0,CS-,animals/boar.jpg,Old,acquisition,MO,H,M,1.7,memory_run-01,acquisition
27,207.984,3.0,CS-,animals/porcupine.jpg,Old,acquisition,DO,H,H,1.176,memory_run-01,acquisition
37,283.717,3.0,CS-,animals/giraffe.jpg,Old,acquisition,MN,M,M,2.46,memory_run-01,extinction
52,396.8,3.0,CS-,animals/pelican.jpg,Old,acquisition,MO,H,M,1.803,memory_run-01,acquisition
56,427.1,3.0,CS-,animals/pigeon.jpg,Old,acquisition,DO,H,H,2.306,memory_run-01,extinction
60,458.401,3.0,CS-,animals/mole.jpg,Old,acquisition,DO,H,H,1.614,memory_run-01,acquisition
70,533.2,3.0,CS-,animals/caterpillarpeacockmoth.jpg,Old,acquisition,DO,H,H,0.843,memory_run-01,acquisition
80,4.033,3.0,CS-,animals/baboon.jpg,Old,acquisition,DO,H,H,1.126,memory_run-02,baseline
96,117.317,3.0,CS-,animals/hummingbird.jpg,Old,acquisition,MO,H,M,1.454,memory_run-02,extinction
100,145.63299999999995,3.0,CS-,animals/leopard.jpg,Old,acquisition,MO,H,M,2.195,memory_run-02,baseline
111,223.35,3.0,CS-,animals/waterbuffalo.jpg,Old,acquisition,DO,H,H,1.875,memory_run-02,acquisition
131,375.817,3.0,CS-,animals/quail.jpg,Old,acquisition,DN,M,M,2.075,memory_run-02,baseline
133,391.967,3.0,CS-,animals/snapper.jpg,Old,acquisition,DO,H,H,1.2919999999999998,memory_run-02,acquisition
150,529.3340000000002,3.0,CS-,animals/herculesbeetle.jpg,Old,acquisition,DO,H,H,1.196,memory_run-02,acquisition
154,561.684,3.0,CS-,animals/cow.jpg,Old,acquisition,DO,H,H,1.198,memory_run-02,baseline
165,39.417,3.0,CS-,animals/flea.jpg,Old,acquisition,DO,H,H,1.278,memory_run-03,acquisition
168,60.667,3.0,CS-,animals/prayingmantis.jpg,Old,acquisition,DO,H,H,0.946,memory_run-03,baseline
174,103.167,3.0,CS-,animals/tiger.jpg,Old,acquisition,DO,H,H,0.966,memory_run-03,baseline
190,216.55,3.0,CS-,animals/pike.jpg,Old,acquisition,DN,M,M,1.933,memory_run-03,acquisition
209,360.0,3.0,CS-,animals/ostrich.jpg,Old,acquisition,DO,H,H,0.956,memory_run-03,acquisition
210,368.083,3.0,CS-,animals/dragonfly.jpg,Old,acquisition,MO,H,M,1.344,memory_run-03,baseline
221,456.9,3.0,CS-,animals/crow.jpg,Old,acquisition,MO,H,M,1.156,memory_run-03,baseline
227,505.383,3.0,CS-,animals/angelfish.jpg,Old,acquisition,DO,H,H,0.972,memory_run-03,extinction
9,72.65,3.0,CS-,animals/mouse.jpg,Old,extinction,MN,M,M,2.402,memory_run-01,baseline
17,134.267,3.0,CS-,animals/herring.jpg,Old,extinction,MO,H,M,1.366,memory_run-01,acquisition
24,185.75,3.0,CS-,animals/firebug.jpg,Old,extinction,MO,H,M,1.853,memory_run-01,extinction
33,253.45,3.0,CS-,animals/camel.jpg,Old,extinction,DO,H,H,1.7009999999999998,memory_run-01,extinction
54,411.95,3.0,CS-,animals/mink.jpg,Old,extinction,MN,M,M,2.249,memory_run-01,extinction
57,435.184,3.0,CS-,animals/mahimahi.jpg,Old,extinction,MO,H,M,2.256,memory_run-01,baseline
63,480.651,3.0,CS-,animals/sheep.jpg,Old,extinction,MN,M,M,1.446,memory_run-01,baseline
76,579.651,3.0,CS-,animals/dramaderry.jpg,Old,extinction,DO,H,H,2.962,memory_run-01,extinction
85,39.433,3.0,CS-,animals/partridge.jpg,Old,extinction,MN,M,M,2.057,memory_run-02,baseline
90,74.817,3.0,CS-,animals/brown_bear.jpg,Old,extinction,MO,H,M,1.869,memory_run-02,extinction
107,195.1,3.0,CS-,animals/anteater.jpg,Old,extinction,MO,H,M,2.119,memory_run-02,acquisition
117,265.783,3.0,CS-,animals/chipmunk.jpg,Old,extinction,MN,M,M,2.319,memory_run-02,baseline
127,343.517,3.0,CS-,animals/turkey.jpg,Old,extinction,MO,H,M,2.415,memory_run-02,extinction
138,432.333,3.0,CS-,animals/carp.jpg,Old,extinction,DO,H,H,1.52,memory_run-02,acquisition
142,464.667,3.0,CS-,animals/rabbit.jpg,Old,extinction,MO,H,M,2.302,memory_run-02,extinction
153,553.5840000000002,3.0,CS-,animals/seal.jpg,Old,extinction,DO,H,H,1.34,memory_run-02,acquisition
160,4.033,3.0,CS-,animals/shark.jpg,Old,extinction,DO,H,H,1.226,memory_run-03,extinction
173,96.067,3.0,CS-,animals/snail.jpg,Old,extinction,DO,H,H,0.99,memory_run-03,baseline
188,202.417,3.0,CS-,animals/palmcockatoo.jpg,Old,extinction,DN,M,M,0.999,memory_run-03,extinction
191,223.617,3.0,CS-,animals/catfish.jpg,Old,extinction,MN,M,M,2.326,memory_run-03,extinction
205,327.6670000000001,3.0,CS-,animals/assassinbug.jpg,Old,extinction,MN,M,M,2.29,memory_run-03,acquisition
216,416.55,3.0,CS-,animals/baldeagle.jpg,Old,extinction,MO,H,M,1.649,memory_run-03,baseline
222,464.983,3.0,CS-,animals/ant.jpg,Old,extinction,DN,M,M,2.3040000000000003,memory_run-03,extinction
237,586.184,3.0,CS-,animals/duck.jpg,Old,extinction,MN,M,M,2.984,memory_run-03,extinction
3,26.234,3.0,CS-,animals/seaslug.jpg,New,foil,MN,CR,CR,1.6469999999999998,memory_run-01,
14,111.067,3.0,CS-,animals/monkey.jpg,New,foil,DN,CR,CR,2.4,memory_run-01,
15,119.134,3.0,CS-,animals/woodlouse.jpg,New,foil,MO,FA,CR,2.944,memory_run-01,
16,126.2,3.0,CS-,animals/balloonfish.jpg,New,foil,MN,CR,CR,2.4,memory_run-01,
28,216.084,3.0,CS-,animals/stickinsect.jpg,New,foil,MN,CR,CR,2.004,memory_run-01,
32,245.384,3.0,CS-,animals/hermitcrab.jpg,New,foil,DN,CR,CR,1.945,memory_run-01,
34,260.517,3.0,CS-,animals/octopus.jpg,New,foil,MN,CR,CR,1.849,memory_run-01,
39,299.817,3.0,CS-,animals/waterdragon.jpg,New,foil,MN,CR,CR,2.5540000000000003,memory_run-01,
40,306.9,3.0,CS-,animals/crane.jpg,New,foil,MO,FA,CR,2.309,memory_run-01,
41,313.9840000000001,3.0,CS-,animals/tortoise.jpg,New,foil,DO,FA,FA,2.9,memory_run-01,
46,351.31699999999995,3.0,CS-,animals/highlandcow.jpg,New,foil,DN,CR,CR,1.717,memory_run-01,
50,382.634,3.0,CS-,animals/bullfrog.jpg,New,foil,MO,FA,CR,1.885,memory_run-01,
65,495.801,3.0,CS-,animals/ladybug.jpg,New,foil,MN,CR,CR,2.032,memory_run-01,
66,502.867,3.0,CS-,animals/panda.jpg,New,foil,DN,CR,CR,1.371,memory_run-01,
67,510.951,3.0,CS-,animals/koala.jpg,New,foil,MN,CR,CR,1.975,memory_run-01,
73,555.451,3.0,CS-,animals/flounder.jpg,New,foil,MO,FA,CR,1.931,memory_run-01,
86,46.5,3.0,CS-,animals/stinkbug.jpg,New,foil,MO,FA,CR,1.341,memory_run-02,
88,60.65,3.0,CS-,animals/slug.jpg,New,foil,MN,CR,CR,1.705,memory_run-02,
94,103.15,3.0,CS-,animals/crab.jpg,New,foil,MN,CR,CR,1.5219999999999998,memory_run-02,
98,131.483,3.0,CS-,animals/marlin.jpg,New,foil,DO,FA,FA,2.045,memory_run-02,
103,166.85,3.0,CS-,animals/dove.jpg,New,foil,MN,CR,CR,1.843,memory_run-02,
104,173.917,3.0,CS-,animals/malaysianjunglenymph.jpg,New,foil,MN,CR,CR,2.248,memory_run-02,
110,216.3,3.0,CS-,animals/tragopan.jpg,New,foil,MN,CR,CR,2.929,memory_run-02,
118,272.867,3.0,CS-,animals/earthworm.jpg,New,foil,DN,CR,CR,1.582,memory_run-02,
120,287.017,3.0,CS-,animals/caracal.jpg,New,foil,DN,CR,CR,1.948,memory_run-02,
129,359.65,3.0,CS-,animals/owl.jpg,New,foil,DO,FA,FA,1.388,memory_run-02,
130,367.733,3.0,CS-,animals/beardeddragon.jpg,New,foil,MN,CR,CR,1.939,memory_run-02,
132,383.9,3.0,CS-,animals/armadillo.jpg,New,foil,MN,CR,CR,1.716,memory_run-02,
147,505.084,3.0,CS-,animals/leafinsect.jpg,New,foil,DN,CR,CR,2.001,memory_run-02,
148,513.183,3.0,CS-,animals/rooster.jpg,New,foil,MN,CR,CR,1.6780000000000002,memory_run-02,
151,537.4,3.0,CS-,animals/orangutan.jpg,New,foil,DN,CR,CR,1.531,memory_run-02,
157,585.884,3.0,CS-,animals/wasp.jpg,New,foil,MN,CR,CR,2.616,memory_run-02,
162,18.15,3.0,CS-,animals/penguin.jpg,New,foil,DN,CR,CR,2.508,memory_run-03,
163,25.233,3.0,CS-,animals/emu.jpg,New,foil,DO,FA,FA,1.804,memory_run-03,
166,46.483,3.0,CS-,animals/clam.jpg,New,foil,DN,CR,CR,0.879,memory_run-03,
170,74.817,3.0,CS-,animals/gecko.jpg,New,foil,DN,CR,CR,1.786,memory_run-03,
186,188.217,3.0,CS-,animals/macaw.jpg,New,foil,MO,FA,CR,1.471,memory_run-03,
189,209.483,3.0,CS-,animals/lobsterspiny.jpg,New,foil,DN,CR,CR,1.472,memory_run-03,
198,273.16700000000003,3.0,CS-,animals/dockbug2.jpg,New,foil,MO,FA,CR,1.932,memory_run-03,
199,280.233,3.0,CS-,animals/cod.jpg,New,foil,MO,FA,CR,1.584,memory_run-03,
202,303.433,3.0,CS-,animals/clownfish.jpg,New,foil,DO,FA,FA,1.382,memory_run-03,
207,343.833,3.0,CS-,animals/toucan.jpg,New,foil,DN,CR,CR,2.286,memory_run-03,
211,376.15,3.0,CS-,animals/kangaroo.jpg,New,foil,MO,FA,CR,1.886,memory_run-03,
212,384.233,3.0,CS-,animals/vulture.jpg,New,foil,MN,CR,CR,1.836,memory_run-03,
229,521.55,3.0,CS-,animals/deer.jpg,New,foil,MN,CR,CR,2.112,memory_run-03,
230,529.617,3.0,CS-,animals/lion.jpg,New,foil,DO,FA,FA,1.41,memory_run-03,
234,561.933,3.0,CS-,animals/lizard.jpg,New,foil,DO,FA,FA,1.287,memory_run-03,
238,594.25,3.0,CS-,animals/ibises.jpg,New,foil,MN,CR,CR,1.479,memory_run-03,
