index,onset,duration,trial_type,stimulus,memory_condition,encode_phase,response,low_confidence_accuracy,high_confidence_accuracy,response_time,phase,source_memory
16,120.184,3.0,CS+,animals/horse.jpg,Old,baseline,MO,H,M,1.425,memory_run-01,acquisition
19,143.434,3.0,CS+,animals/shrimp.jpg,Old,baseline,DO,H,H,1.173,memory_run-01,acquisition
35,264.66700000000003,3.0,CS+,animals/caterpillarhawkmoth.jpg,Old,baseline,DO,H,H,0.675,memory_run-01,acquisition
38,286.884,3.0,CS+,animals/flamingo.jpg,Old,baseline,DO,H,H,1.062,memory_run-01,acquisition
43,325.267,3.0,CS+,animals/goldfish.jpg,Old,baseline,DO,H,H,0.836,memory_run-01,acquisition
46,348.517,3.0,CS+,animals/hyena.jpg,Old,baseline,DO,H,H,1.099,memory_run-01,acquisition
60,456.584,3.0,CS+,animals/marmot.jpg,Old,baseline,MO,H,M,1.23,memory_run-01,extinction
77,586.9,3.0,CS+,animals/cricket.jpg,Old,baseline,MO,H,M,1.32,memory_run-01,acquisition
82,18.2,3.0,CS+,animals/starfish.jpg,Old,baseline,DN,M,M,1.083,memory_run-02,extinction
99,138.683,3.0,CS+,animals/halibut.jpg,Old,baseline,MO,H,M,1.087,memory_run-02,acquisition
104,174.15,3.0,CS+,animals/perch.jpg,Old,baseline,MO,H,M,1.247,memory_run-02,acquisition
111,223.75,3.0,CS+,animals/cat.jpg,Old,baseline,DO,H,H,1.087,memory_run-02,acquisition
125,328.033,3.0,CS+,animals/cranebug.jpg,Old,baseline,DO,H,H,1.518,memory_run-02,acquisition
128,352.283,3.0,CS+,animals/canary.jpg,Old,baseline,DO,H,H,0.743,memory_run-02,acquisition
147,505.999,3.0,CS+,animals/racoon.jpg,Old,baseline,MO,H,M,1.897,memory_run-02,acquisition
153,554.533,3.0,CS+,animals/salmon.jpg,Old,baseline,MO,H,M,1.659,memory_run-02,acquisition
172,89.0,3.0,CS+,animals/reindeer.jpg,Old,baseline,MO,H,M,1.298,memory_run-03,acquisition
176,117.3,3.0,CS+,animals/llama.jpg,Old,baseline,DO,H,H,1.288,memory_run-03,acquisition
182,159.8,3.0,CS+,animals/skunk.jpg,Old,baseline,DO,H,H,0.831,memory_run-03,acquisition
183,166.866,3.0,CS+,animals/aardvark.jpg,Old,baseline,DO,H,H,0.8370000000000001,memory_run-03,acquisition
200,287.249,3.0,CS+,animals/finch.jpg,Old,baseline,DO,H,H,0.6920000000000001,memory_run-03,acquisition
222,464.93300000000005,3.0,CS+,animals/rhino.jpg,Old,baseline,DO,H,H,1.064,memory_run-03,acquisition
236,578.049,3.0,CS+,animals/zebra.jpg,Old,baseline,DO,H,H,1.584,memory_run-03,acquisition
237,586.116,3.0,CS+,animals/elephantafrican.jpg,Old,baseline,DN,M,M,1.463,memory_run-03,acquisition
1,11.1,3.0,CS+,animals/gerbil.jpg,Old,acquisition,DN,M,M,1.319,memory_run-01,acquisition
5,40.4,3.0,CS+,animals/mole.jpg,Old,acquisition,DO,H,H,1.617,memory_run-01,acquisition
33,249.517,3.0,CS+,animals/pigeon.jpg,Old,acquisition,DO,H,H,0.984,memory_run-01,acquisition
34,256.6,3.0,CS+,animals/pelican.jpg,Old,acquisition,DO,H,H,0.7340000000000001,memory_run-01,acquisition
42,317.184,3.0,CS+,animals/caterpillarpeacockmoth.jpg,Old,acquisition,DO,H,H,1.039,memory_run-01,acquisition
47,355.584,3.0,CS+,animals/porcupine.jpg,Old,acquisition,DO,H,H,1.004,memory_run-01,acquisition
64,486.867,3.0,CS+,animals/boar.jpg,Old,acquisition,DO,H,H,1.048,memory_run-01,acquisition
76,579.817,3.0,CS+,animals/giraffe.jpg,Old,acquisition,DO,H,H,1.105,memory_run-01,acquisition
84,32.35,3.0,CS+,animals/waterbuffalo.jpg,Old,acquisition,MO,H,M,1.44,memory_run-02,acquisition
96,117.433,3.0,CS+,animals/quail.jpg,Old,acquisition,DO,H,H,1.3730000000000002,memory_run-02,acquisition
100,145.783,3.0,CS+,animals/cow.jpg,Old,acquisition,MO,H,M,1.232,memory_run-02,acquisition
114,245.05,3.0,CS+,animals/hummingbird.jpg,Old,acquisition,DO,H,H,0.934,memory_run-02,acquisition
123,311.833,3.0,CS+,animals/snapper.jpg,Old,acquisition,DO,H,H,0.988,memory_run-02,acquisition
131,376.583,3.0,CS+,animals/baboon.jpg,Old,acquisition,DO,H,H,1.087,memory_run-02,acquisition
148,514.0830000000002,3.0,CS+,animals/herculesbeetle.jpg,Old,acquisition,DO,H,H,0.905,memory_run-02,acquisition
159,603.05,3.0,CS+,animals/leopard.jpg,Old,acquisition,DO,H,H,1.105,memory_run-02,acquisition
167,53.6,3.0,CS+,animals/tiger.jpg,Old,acquisition,DO,H,H,0.958,memory_run-03,acquisition
174,103.15,3.0,CS+,animals/angelfish.jpg,Old,acquisition,DO,H,H,0.664,memory_run-03,acquisition
194,244.799,3.0,CS+,animals/crow.jpg,Old,acquisition,DO,H,H,1.284,memory_run-03,acquisition
199,280.166,3.0,CS+,animals/dragonfly.jpg,Old,acquisition,DO,H,H,1.5530000000000002,memory_run-03,acquisition
210,368.016,3.0,CS+,animals/ostrich.jpg,Old,acquisition,DO,H,H,1.219,memory_run-03,acquisition
214,400.316,3.0,CS+,animals/flea.jpg,Old,acquisition,DO,H,H,0.838,memory_run-03,acquisition
217,424.549,3.0,CS+,animals/pike.jpg,Old,acquisition,MO,H,M,1.056,memory_run-03,acquisition
232,545.716,3.0,CS+,animals/prayingmantis.jpg,Old,acquisition,DO,H,H,0.8170000000000001,memory_run-03,acquisition
6,47.467,3.0,CS+,animals/mahimahi.jpg,Old,extinction,DO,H,H,0.947,memory_run-01,acquisition
12,89.9,3.0,CS+,animals/firebug.jpg,Old,extinction,DO,H,H,1.212,memory_run-01,acquisition
20,151.517,3.0,CS+,animals/herring.jpg,Old,extinction,DO,H,H,1.199,memory_run-01,acquisition
28,210.134,3.0,CS+,animals/sheep.jpg,Old,extinction,DO,H,H,1.279,memory_run-01,acquisition
44,332.35,3.0,CS+,animals/camel.jpg,Old,extinction,MO,H,M,1.111,memory_run-01,acquisition
55,418.217,3.0,CS+,animals/dramaderry.jpg,Old,extinction,MO,H,M,1.816,memory_run-01,extinction
78,594.984,3.0,CS+,animals/mink.jpg,Old,extinction,DO,H,H,1.029,memory_run-01,acquisition
79,602.05,3.0,CS+,animals/mouse.jpg,Old,extinction,DO,H,H,1.16,memory_run-01,acquisition
81,11.1,3.0,CS+,animals/chipmunk.jpg,Old,extinction,MO,H,M,2.0380000000000003,memory_run-02,acquisition
89,67.8,3.0,CS+,animals/rabbit.jpg,Old,extinction,DO,H,H,2.334,memory_run-02,acquisition
108,202.5,3.0,CS+,animals/turkey.jpg,Old,extinction,MO,H,M,1.43,memory_run-02,acquisition
117,266.333,3.0,CS+,animals/seal.jpg,Old,extinction,MO,H,M,1.233,memory_run-02,acquisition
120,287.583,3.0,CS+,animals/brown_bear.jpg,Old,extinction,DO,H,H,2.156,memory_run-02,acquisition
126,336.1330000000001,3.0,CS+,animals/anteater.jpg,Old,extinction,DO,H,H,1.3159999999999998,memory_run-02,acquisition
141,457.43300000000005,3.0,CS+,animals/carp.jpg,Old,extinction,DO,H,H,0.8740000000000001,memory_run-02,acquisition
150,530.283,3.0,CS+,animals/partridge.jpg,Old,extinction,DO,H,H,1.897,memory_run-02,acquisition
169,67.766,3.0,CS+,animals/ant.jpg,Old,extinction,DO,H,H,0.795,memory_run-03,acquisition
170,74.833,3.0,CS+,animals/snail.jpg,Old,extinction,MO,H,M,1.48,memory_run-03,acquisition
180,145.616,3.0,CS+,animals/palmcockatoo.jpg,Old,extinction,MO,H,M,1.432,memory_run-03,acquisition
185,181.05,3.0,CS+,animals/baldeagle.jpg,Old,extinction,DO,H,H,1.445,memory_run-03,acquisition
202,303.416,3.0,CS+,animals/duck.jpg,Old,extinction,MN,M,M,1.482,memory_run-03,extinction
213,392.233,3.0,CS+,animals/shark.jpg,Old,extinction,DO,H,H,1.104,memory_run-03,acquisition
228,513.4,3.0,CS+,animals/assassinbug.jpg,Old,extinction,DO,H,H,0.895,memory_run-03,acquisition
234,561.899,3.0,CS+,animals/catfish.jpg,Old,extinction,MO,H,M,1.362,memory_run-03,extinction
0,4.034,3.0,CS+,animals/koala.jpg,New,foil,,CR,CR,,memory_run-01,
2,18.184,3.0,CS+,animals/stickinsect.jpg,New,foil,DN,CR,CR,1.963,memory_run-01,
10,75.767,3.0,CS+,animals/tortoise.jpg,New,foil,DO,FA,FA,1.4980000000000002,memory_run-01,
11,82.834,3.0,CS+,animals/monkey.jpg,New,foil,MO,FA,CR,1.266,memory_run-01,
23,173.717,3.0,CS+,animals/woodlouse.jpg,New,foil,DN,CR,CR,1.836,memory_run-01,
26,195.984,3.0,CS+,animals/seaslug.jpg,New,foil,MO,FA,CR,1.797,memory_run-01,
31,233.35,3.0,CS+,animals/balloonfish.jpg,New,foil,MO,FA,CR,1.4880000000000002,memory_run-01,
39,294.95,3.0,CS+,animals/waterdragon.jpg,New,foil,MO,FA,CR,1.596,memory_run-01,
41,309.1,3.0,CS+,animals/crane.jpg,New,foil,MO,FA,CR,1.175,memory_run-01,
45,340.434,3.0,CS+,animals/ladybug.jpg,New,foil,MO,FA,CR,1.141,memory_run-01,
53,402.067,3.0,CS+,animals/bullfrog.jpg,New,foil,MO,FA,CR,1.235,memory_run-01,
54,410.15,3.0,CS+,animals/flounder.jpg,New,foil,MO,FA,CR,1.396,memory_run-01,
62,471.717,3.0,CS+,animals/panda.jpg,New,foil,DN,CR,CR,1.932,memory_run-01,
63,479.784,3.0,CS+,animals/highlandcow.jpg,New,foil,DO,FA,FA,1.558,memory_run-01,
68,518.184,3.0,CS+,animals/hermitcrab.jpg,New,foil,DO,FA,FA,1.952,memory_run-01,
75,571.734,3.0,CS+,animals/octopus.jpg,New,foil,MO,FA,CR,1.523,memory_run-01,
80,4.033,3.0,CS+,animals/wasp.jpg,New,foil,DN,CR,CR,1.114,memory_run-02,
88,60.7,3.0,CS+,animals/leafinsect.jpg,New,foil,DN,CR,CR,1.217,memory_run-02,
91,82.0,3.0,CS+,animals/slug.jpg,New,foil,DN,CR,CR,1.6669999999999998,memory_run-02,
97,124.516,3.0,CS+,animals/dove.jpg,New,foil,MO,FA,CR,1.354,memory_run-02,
101,152.85,3.0,CS+,animals/malaysianjunglenymph.jpg,New,foil,MO,FA,CR,1.525,memory_run-02,
110,216.65,3.0,CS+,animals/tragopan.jpg,New,foil,MN,CR,CR,2.358,memory_run-02,
113,237.95,3.0,CS+,animals/rooster.jpg,New,foil,DN,CR,CR,1.42,memory_run-02,
119,280.5,3.0,CS+,animals/beardeddragon.jpg,New,foil,DN,CR,CR,1.896,memory_run-02,
127,344.199,3.0,CS+,animals/caracal.jpg,New,foil,DO,FA,FA,1.078,memory_run-02,
132,384.68300000000005,3.0,CS+,animals/earthworm.jpg,New,foil,DN,CR,CR,1.541,memory_run-02,
133,392.783,3.0,CS+,animals/stinkbug.jpg,New,foil,DO,FA,FA,0.857,memory_run-02,
135,408.949,3.0,CS+,animals/marlin.jpg,New,foil,DO,FA,FA,0.919,memory_run-02,
142,465.533,3.0,CS+,animals/owl.jpg,New,foil,DO,FA,FA,1.029,memory_run-02,
145,489.783,3.0,CS+,animals/orangutan.jpg,New,foil,DN,CR,CR,1.692,memory_run-02,
146,497.9,3.0,CS+,animals/armadillo.jpg,New,foil,MN,CR,CR,1.453,memory_run-02,
155,570.7,3.0,CS+,animals/crab.jpg,New,foil,MO,FA,CR,1.065,memory_run-02,
163,25.216,3.0,CS+,animals/kangaroo.jpg,New,foil,MO,FA,CR,2.092,memory_run-03,
173,96.066,3.0,CS+,animals/macaw.jpg,New,foil,MO,FA,CR,1.13,memory_run-03,
175,110.216,3.0,CS+,animals/lizard.jpg,New,foil,MO,FA,CR,1.4369999999999998,memory_run-03,
177,124.4,3.0,CS+,animals/dockbug2.jpg,New,foil,DN,CR,CR,1.976,memory_run-03,
184,173.95,3.0,CS+,animals/penguin.jpg,New,foil,MO,FA,CR,1.3019999999999998,memory_run-03,
187,195.2,3.0,CS+,animals/gecko.jpg,New,foil,MO,FA,CR,1.401,memory_run-03,
193,237.733,3.0,CS+,animals/cod.jpg,New,foil,DN,CR,CR,1.617,memory_run-03,
197,266.033,3.0,CS+,animals/clam.jpg,New,foil,DO,FA,FA,0.961,memory_run-03,
204,319.5490000000001,3.0,CS+,animals/lion.jpg,New,foil,DO,FA,FA,0.8590000000000001,memory_run-03,
206,335.716,3.0,CS+,animals/vulture.jpg,New,foil,MN,CR,CR,2.12,memory_run-03,
208,351.8830000000001,3.0,CS+,animals/toucan.jpg,New,foil,,CR,CR,,memory_run-03,
219,440.7,3.0,CS+,animals/deer.jpg,New,foil,MN,CR,CR,1.633,memory_run-03,
221,456.85,3.0,CS+,animals/ibises.jpg,New,foil,DO,FA,FA,1.185,memory_run-03,
227,505.3,3.0,CS+,animals/emu.jpg,New,foil,MO,FA,CR,1.36,memory_run-03,
230,529.55,3.0,CS+,animals/lobsterspiny.jpg,New,foil,DN,CR,CR,1.986,memory_run-03,
239,602.266,3.0,CS+,animals/clownfish.jpg,New,foil,MO,FA,CR,1.4240000000000002,memory_run-03,
8,61.601000000000006,3.0,CS-,tools/jumpercables.jpg,Old,baseline,DO,H,H,1.739,memory_run-01,acquisition
13,97.967,3.0,CS-,tools/workbench.jpg,Old,baseline,DO,H,H,1.255,memory_run-01,acquisition
24,180.8,3.0,CS-,tools/microwave.jpg,Old,baseline,DN,M,M,1.104,memory_run-01,acquisition
30,225.284,3.0,CS-,tools/monkeywrench.jpg,Old,baseline,MO,H,M,1.947,memory_run-01,acquisition
48,362.667,3.0,CS-,tools/edger.jpg,Old,baseline,DO,H,H,2.436,memory_run-01,acquisition
51,385.9,3.0,CS-,tools/solderingtorch.jpg,Old,baseline,DN,M,M,1.858,memory_run-01,extinction
72,548.5,3.0,CS-,tools/measuringtape.jpg,Old,baseline,MN,M,M,1.838,memory_run-01,acquisition
74,563.6669999999998,3.0,CS-,tools/camera.jpg,Old,baseline,DO,H,H,1.298,memory_run-01,acquisition
87,53.6,3.0,CS-,tools/duffelbag.jpg,Old,baseline,DN,M,M,1.252,memory_run-02,baseline
90,74.9,3.0,CS-,tools/squeegee.jpg,Old,baseline,MN,M,M,1.085,memory_run-02,extinction
103,167.05,3.0,CS-,tools/videogamecontroller.jpg,Old,baseline,DO,H,H,1.14,memory_run-02,acquisition
109,209.583,3.0,CS-,tools/toaster.jpg,Old,baseline,DN,M,M,2.412,memory_run-02,acquisition
124,319.933,3.0,CS-,tools/blower.jpg,Old,baseline,DN,M,M,1.69,memory_run-02,acquisition
139,441.249,3.0,CS-,tools/hammer.jpg,Old,baseline,MO,H,M,1.203,memory_run-02,acquisition
143,473.599,3.0,CS-,tools/chainsaw.jpg,Old,baseline,DO,H,H,0.8170000000000001,memory_run-02,acquisition
154,562.633,3.0,CS-,tools/airpump.jpg,Old,baseline,DN,M,M,1.147,memory_run-02,extinction
165,39.4,3.0,CS-,tools/paintbrush.jpg,Old,baseline,MO,H,M,1.391,memory_run-03,acquisition
171,81.9,3.0,CS-,tools/screwdriver.jpg,Old,baseline,DO,H,H,1.243,memory_run-03,baseline
196,258.966,3.0,CS-,tools/extensioncord.jpg,Old,baseline,MO,H,M,1.166,memory_run-03,acquisition
198,273.099,3.0,CS-,tools/padlock.jpg,Old,baseline,DO,H,H,1.331,memory_run-03,acquisition
209,359.949,3.0,CS-,tools/carpetblower.jpg,Old,baseline,DN,M,M,1.751,memory_run-03,acquisition
211,376.099,3.0,CS-,tools/treadmill.jpg,Old,baseline,DO,H,H,1.378,memory_run-03,acquisition
226,497.216,3.0,CS-,tools/bucket.jpg,Old,baseline,DO,H,H,1.37,memory_run-03,acquisition
233,553.8,3.0,CS-,tools/campingstove.jpg,Old,baseline,MN,M,M,1.51,memory_run-03,extinction
4,33.334,3.0,CS-,tools/ladder.jpg,Old,acquisition,DO,H,H,2.196,memory_run-01,acquisition
14,106.05,3.0,CS-,tools/hairdryer.jpg,Old,acquisition,DO,H,H,1.144,memory_run-01,acquisition
21,158.584,3.0,CS-,tools/ropeandpulley.jpg,Old,acquisition,MN,M,M,1.595,memory_run-01,acquisition
36,272.75,3.0,CS-,tools/rollingpin.jpg,Old,acquisition,DN,M,M,0.787,memory_run-01,baseline
52,393.984,3.0,CS-,tools/scissors.jpg,Old,acquisition,MN,M,M,1.042,memory_run-01,baseline
58,440.434,3.0,CS-,tools/faxmachine.jpg,Old,acquisition,DN,M,M,0.826,memory_run-01,extinction
67,510.1,3.0,CS-,tools/plow.jpg,Old,acquisition,DO,H,H,1.61,memory_run-01,acquisition
70,533.35,3.0,CS-,tools/gardenhose.jpg,Old,acquisition,DN,M,M,0.915,memory_run-01,extinction
93,96.183,3.0,CS-,tools/paintroller.jpg,Old,acquisition,DN,M,M,1.035,memory_run-02,extinction
95,110.35,3.0,CS-,tools/stove.jpg,Old,acquisition,DN,M,M,0.995,memory_run-02,extinction
105,181.233,3.0,CS-,tools/pliers.jpg,Old,acquisition,MN,M,M,1.625,memory_run-02,acquisition
106,188.333,3.0,CS-,tools/rake.jpg,Old,acquisition,MN,M,M,1.856,memory_run-02,baseline
121,295.666,3.0,CS-,tools/chisel.jpg,Old,acquisition,DN,M,M,0.794,memory_run-02,acquisition
138,433.18300000000005,3.0,CS-,tools/weldinghelmet.jpg,Old,acquisition,DO,H,H,1.048,memory_run-02,acquisition
151,538.349,3.0,CS-,tools/wheelbarrow.jpg,Old,acquisition,DO,H,H,1.676,memory_run-02,extinction
157,586.85,3.0,CS-,tools/shoehorn.jpg,Old,acquisition,DN,M,M,2.704,memory_run-02,baseline
160,4.033,3.0,CS-,tools/electricbreaker.jpg,Old,acquisition,DO,H,H,1.651,memory_run-03,acquisition
164,32.3,3.0,CS-,tools/reflexhammer.jpg,Old,acquisition,DO,H,H,1.039,memory_run-03,acquisition
181,152.7,3.0,CS-,tools/transmissionwrench.jpg,Old,acquisition,DO,H,H,1.151,memory_run-03,acquisition
189,209.4,3.0,CS-,tools/cheesegrater.jpg,Old,acquisition,MO,H,M,1.59,memory_run-03,acquisition
207,343.7990000000001,3.0,CS-,tools/gong.jpg,Old,acquisition,DO,H,H,1.525,memory_run-03,extinction
218,432.633,3.0,CS-,tools/beadingtool.jpg,Old,acquisition,DO,H,H,1.4480000000000002,memory_run-03,acquisition
225,489.15,3.0,CS-,tools/plunger.jpg,Old,acquisition,DO,H,H,1.062,memory_run-03,acquisition
238,594.183,3.0,CS-,tools/drillbit.jpg,Old,acquisition,MO,H,M,1.4069999999999998,memory_run-03,acquisition
15,113.117,3.0,CS-,tools/measuringcups.jpg,Old,extinction,DN,M,M,1.216,memory_run-01,extinction
17,128.267,3.0,CS-,tools/blackboard.jpg,Old,extinction,DN,M,M,1.151,memory_run-01,baseline
22,166.65099999999995,3.0,CS-,tools/ruler.jpg,Old,extinction,MN,M,M,1.528,memory_run-01,extinction
37,279.834,3.0,CS-,tools/thermometer.jpg,Old,extinction,DO,H,H,1.4280000000000002,memory_run-01,acquisition
56,425.284,3.0,CS-,tools/sparkplug.jpg,Old,extinction,MN,M,M,1.7080000000000002,memory_run-01,acquisition
59,448.517,3.0,CS-,tools/fan.jpg,Old,extinction,MN,M,M,1.4469999999999998,memory_run-01,acquisition
71,540.4169999999998,3.0,CS-,tools/levelmount.jpg,Old,extinction,DN,M,M,1.3530000000000002,memory_run-01,extinction
73,555.5840000000002,3.0,CS-,tools/broom.jpg,Old,extinction,MN,M,M,1.743,memory_run-01,extinction
86,46.533,3.0,CS-,tools/spoon.jpg,Old,extinction,MN,M,M,1.13,memory_run-02,acquisition
92,89.1,3.0,CS-,tools/eraser.jpg,Old,extinction,DN,M,M,0.946,memory_run-02,acquisition
102,159.95,3.0,CS-,tools/measuringdevice.jpg,Old,extinction,DN,M,M,1.936,memory_run-02,baseline
116,259.25,3.0,CS-,tools/weedeater.jpg,Old,extinction,MN,M,M,1.796,memory_run-02,baseline
122,303.75,3.0,CS-,tools/lawnmower.jpg,Old,extinction,MN,M,M,0.999,memory_run-02,extinction
129,360.383,3.0,CS-,tools/routerplane.jpg,Old,extinction,DO,H,H,0.8540000000000001,memory_run-02,acquisition
140,449.349,3.0,CS-,tools/woodchipper.jpg,Old,extinction,DN,M,M,1.591,memory_run-02,baseline
144,481.68300000000005,3.0,CS-,tools/wrench.jpg,Old,extinction,DO,H,H,0.893,memory_run-02,acquisition
161,11.083,3.0,CS-,tools/vegetablepeeler.jpg,Old,extinction,MO,H,M,1.499,memory_run-03,extinction
168,60.7,3.0,CS-,tools/tubeflaring.jpg,Old,extinction,MN,M,M,1.266,memory_run-03,extinction
188,202.3,3.0,CS-,tools/viceclamp.jpg,Old,extinction,MN,M,M,1.2009999999999998,memory_run-03,baseline
192,230.649,3.0,CS-,tools/mallet.jpg,Old,extinction,DN,M,M,1.038,memory_run-03,extinction
212,384.166,3.0,CS-,tools/pruner.jpg,Old,extinction,MN,M,M,1.6469999999999998,memory_run-03,extinction
215,408.399,3.0,CS-,tools/benchdogs.jpg,Old,extinction,DN,M,M,1.5,memory_run-03,acquisition
229,521.466,3.0,CS-,tools/sander.jpg,Old,extinction,MN,M,M,1.093,memory_run-03,acquisition
231,537.633,3.0,CS-,tools/beaker.jpg,Old,extinction,DO,H,H,1.041,memory_run-03,extinction
3,25.25,3.0,CS-,tools/dremel.jpg,New,foil,MO,FA,CR,1.327,memory_run-01,
7,54.534,3.0,CS-,tools/burnisher.jpg,New,foil,MO,FA,CR,2.03,memory_run-01,
9,68.684,3.0,CS-,tools/whisk.jpg,New,foil,DN,CR,CR,1.442,memory_run-01,
18,135.351,3.0,CS-,tools/wateringcan.jpg,New,foil,DO,FA,FA,1.153,memory_run-01,
25,188.9,3.0,CS-,tools/level.jpg,New,foil,DN,CR,CR,1.855,memory_run-01,
27,203.05,3.0,CS-,tools/keys.jpg,New,foil,DN,CR,CR,1.56,memory_run-01,
29,218.2,3.0,CS-,tools/magnet.jpg,New,foil,MN,CR,CR,1.359,memory_run-01,
32,241.43400000000003,3.0,CS-,tools/mellonballer.jpg,New,foil,DN,CR,CR,1.358,memory_run-01,
40,302.017,3.0,CS-,tools/microscope.jpg,New,foil,MN,CR,CR,1.358,memory_run-01,
49,370.75,3.0,CS-,tools/caulkinggun.jpg,New,foil,DN,CR,CR,1.371,memory_run-01,
50,377.817,3.0,CS-,tools/bolt.jpg,New,foil,MN,CR,CR,1.4509999999999998,memory_run-01,
57,433.367,3.0,CS-,tools/grapplinghook.jpg,New,foil,DN,CR,CR,2.347,memory_run-01,
61,464.65,3.0,CS-,tools/whistle.jpg,New,foil,MN,CR,CR,1.567,memory_run-01,
65,493.934,3.0,CS-,tools/electricdrill.jpg,New,foil,MN,CR,CR,1.406,memory_run-01,
66,502.017,3.0,CS-,tools/lantern.jpg,New,foil,DO,FA,FA,1.892,memory_run-01,
69,525.2669999999998,3.0,CS-,tools/engine.jpg,New,foil,DN,CR,CR,1.354,memory_run-01,
83,25.283,3.0,CS-,tools/flashlight.jpg,New,foil,DN,CR,CR,0.879,memory_run-02,
85,39.45,3.0,CS-,tools/clamp.jpg,New,foil,MN,CR,CR,1.154,memory_run-02,
94,103.283,3.0,CS-,tools/pick.jpg,New,foil,DN,CR,CR,1.212,memory_run-02,
98,131.6,3.0,CS-,tools/snowbrush.jpg,New,foil,DN,CR,CR,1.181,memory_run-02,
107,195.416,3.0,CS-,tools/pizzacutter.jpg,New,foil,DN,CR,CR,1.304,memory_run-02,
112,230.85,3.0,CS-,tools/duster.jpg,New,foil,MN,CR,CR,1.119,memory_run-02,
115,252.15,3.0,CS-,tools/battery.jpg,New,foil,DN,CR,CR,2.509,memory_run-02,
118,273.4,3.0,CS-,tools/anvil.jpg,New,foil,MN,CR,CR,1.1740000000000002,memory_run-02,
130,368.483,3.0,CS-,tools/razorblade.jpg,New,foil,MN,CR,CR,1.5719999999999998,memory_run-02,
134,400.883,3.0,CS-,tools/stapler.jpg,New,foil,DO,FA,FA,1.148,memory_run-02,
136,417.033,3.0,CS-,tools/hedgeshears.jpg,New,foil,DO,FA,FA,1.234,memory_run-02,
137,425.099,3.0,CS-,tools/carabiner.jpg,New,foil,MN,CR,CR,1.755,memory_run-02,
149,522.183,3.0,CS-,tools/laptop.jpg,New,foil,MN,CR,CR,1.6869999999999998,memory_run-02,
152,546.4490000000002,3.0,CS-,tools/scratchawl.jpg,New,foil,DN,CR,CR,1.011,memory_run-02,
156,578.783,3.0,CS-,tools/telephone.jpg,New,foil,,CR,CR,,memory_run-02,
158,594.95,3.0,CS-,tools/sawblade.jpg,New,foil,DN,CR,CR,0.938,memory_run-02,
162,18.15,3.0,CS-,tools/vacuumcleaner.jpg,New,foil,DN,CR,CR,1.379,memory_run-03,
166,46.5,3.0,CS-,tools/nailgun.jpg,New,foil,MO,FA,CR,1.389,memory_run-03,
178,131.483,3.0,CS-,tools/clippers.jpg,New,foil,DN,CR,CR,0.767,memory_run-03,
179,138.55,3.0,CS-,tools/magnifyingglass.jpg,New,foil,DN,CR,CR,0.696,memory_run-03,
186,188.116,3.0,CS-,tools/hourglass.jpg,New,foil,DN,CR,CR,1.383,memory_run-03,
190,216.5,3.0,CS-,tools/vicegrips.jpg,New,foil,MN,CR,CR,1.614,memory_run-03,
191,223.566,3.0,CS-,tools/smartphone.jpg,New,foil,DN,CR,CR,0.884,memory_run-03,
195,251.883,3.0,CS-,tools/watch.jpg,New,foil,DN,CR,CR,1.072,memory_run-03,
201,295.333,3.0,CS-,tools/tape.jpg,New,foil,DN,CR,CR,1.218,memory_run-03,
203,311.466,3.0,CS-,tools/compass.jpg,New,foil,DN,CR,CR,1.172,memory_run-03,
205,327.633,3.0,CS-,tools/cuttingboard.jpg,New,foil,MN,CR,CR,1.4509999999999998,memory_run-03,
216,416.466,3.0,CS-,tools/shovel.jpg,New,foil,DN,CR,CR,1.001,memory_run-03,
220,448.783,3.0,CS-,tools/staplegun.jpg,New,foil,MO,FA,CR,1.832,memory_run-03,
223,473.0,3.0,CS-,tools/stethoscope.jpg,New,foil,DO,FA,FA,1.132,memory_run-03,
224,481.066,3.0,CS-,tools/electricsewingmachine.jpg,New,foil,MO,FA,CR,1.241,memory_run-03,
235,569.966,3.0,CS-,tools/crank.jpg,New,foil,DN,CR,CR,1.274,memory_run-03,
