index,onset,duration,trial_type,stimulus,memory_condition,encode_phase,response,low_confidence_accuracy,high_confidence_accuracy,response_time,phase,source_memory
13,102.151,3.0,CS+,animals/horse.jpg,Old,baseline,MO,H,M,0.833,memory_run-01,acquisition
18,140.567,3.0,CS+,animals/goldfish.jpg,Old,baseline,MO,H,M,1.024,memory_run-01,baseline
21,163.80100000000004,3.0,CS+,animals/hyena.jpg,Old,baseline,DO,H,H,0.999,memory_run-01,acquisition
38,291.134,3.0,CS+,animals/cricket.jpg,Old,baseline,DO,H,H,1.022,memory_run-01,acquisition
48,367.884,3.0,CS+,animals/caterpillarhawkmoth.jpg,Old,baseline,DO,H,H,1.845,memory_run-01,acquisition
53,405.284,3.0,CS+,animals/flamingo.jpg,Old,baseline,DO,H,H,1.218,memory_run-01,extinction
69,526.4680000000002,3.0,CS+,animals/marmot.jpg,Old,baseline,DO,H,H,1.615,memory_run-01,acquisition
79,602.2180000000002,3.0,CS+,animals/shrimp.jpg,Old,baseline,MO,H,M,1.279,memory_run-01,extinction
85,39.4,3.0,CS+,animals/starfish.jpg,Old,baseline,MO,H,M,1.527,memory_run-02,acquisition
99,138.467,3.0,CS+,animals/cat.jpg,Old,baseline,MO,H,M,1.305,memory_run-02,acquisition
116,258.951,3.0,CS+,animals/racoon.jpg,Old,baseline,MO,H,M,1.04,memory_run-02,acquisition
118,273.101,3.0,CS+,animals/halibut.jpg,Old,baseline,MO,H,M,1.045,memory_run-02,extinction
127,343.8180000000001,3.0,CS+,animals/canary.jpg,Old,baseline,MO,H,M,1.234,memory_run-02,acquisition
136,416.468,3.0,CS+,animals/perch.jpg,Old,baseline,MO,H,M,0.8390000000000001,memory_run-02,extinction
152,545.785,3.0,CS+,animals/cranebug.jpg,Old,baseline,MO,H,M,1.356,memory_run-02,acquisition
153,553.868,3.0,CS+,animals/salmon.jpg,Old,baseline,MO,H,M,0.8390000000000001,memory_run-02,acquisition
160,4.034,3.0,CS+,animals/finch.jpg,Old,baseline,MO,H,M,1.336,memory_run-03,acquisition
173,96.117,3.0,CS+,animals/zebra.jpg,Old,baseline,MO,H,M,1.02,memory_run-03,acquisition
189,209.484,3.0,CS+,animals/aardvark.jpg,Old,baseline,MN,M,M,1.604,memory_run-03,acquisition
199,280.318,3.0,CS+,animals/skunk.jpg,Old,baseline,MO,H,M,1.128,memory_run-03,acquisition
207,343.901,3.0,CS+,animals/elephantafrican.jpg,Old,baseline,MO,H,M,0.915,memory_run-03,baseline
212,384.268,3.0,CS+,animals/llama.jpg,Old,baseline,MO,H,M,0.768,memory_run-03,extinction
220,448.901,3.0,CS+,animals/reindeer.jpg,Old,baseline,MN,M,M,2.803,memory_run-03,extinction
222,465.085,3.0,CS+,animals/rhino.jpg,Old,baseline,MO,H,M,1.07,memory_run-03,acquisition
11,85.96700000000001,3.0,CS+,animals/giraffe.jpg,Old,acquisition,MO,H,M,1.36,memory_run-01,acquisition
16,125.401,3.0,CS+,animals/pigeon.jpg,Old,acquisition,DO,H,H,1.169,memory_run-01,acquisition
20,155.717,3.0,CS+,animals/caterpillarpeacockmoth.jpg,Old,acquisition,DO,H,H,1.457,memory_run-01,acquisition
32,247.68400000000003,3.0,CS+,animals/mole.jpg,Old,acquisition,MO,H,M,0.965,memory_run-01,acquisition
40,306.284,3.0,CS+,animals/porcupine.jpg,Old,acquisition,DO,H,H,1.027,memory_run-01,acquisition
41,314.367,3.0,CS+,animals/pelican.jpg,Old,acquisition,MO,H,M,1.211,memory_run-01,acquisition
75,571.935,3.0,CS+,animals/boar.jpg,Old,acquisition,MO,H,M,1.22,memory_run-01,extinction
78,594.151,3.0,CS+,animals/gerbil.jpg,Old,acquisition,MO,H,M,1.231,memory_run-01,acquisition
82,18.184,3.0,CS+,animals/hummingbird.jpg,Old,acquisition,DO,H,H,1.262,memory_run-02,acquisition
83,25.25,3.0,CS+,animals/waterbuffalo.jpg,Old,acquisition,MO,H,M,1.1840000000000002,memory_run-02,acquisition
114,244.784,3.0,CS+,animals/snapper.jpg,Old,acquisition,MO,H,M,0.992,memory_run-02,extinction
115,251.867,3.0,CS+,animals/quail.jpg,Old,acquisition,MO,H,M,1.3259999999999998,memory_run-02,acquisition
121,295.318,3.0,CS+,animals/baboon.jpg,Old,acquisition,MO,H,M,1.016,memory_run-02,acquisition
132,384.168,3.0,CS+,animals/cow.jpg,Old,acquisition,MO,H,M,1.1740000000000002,memory_run-02,acquisition
145,489.235,3.0,CS+,animals/herculesbeetle.jpg,Old,acquisition,MO,H,M,1.4269999999999998,memory_run-02,baseline
157,586.168,3.0,CS+,animals/leopard.jpg,Old,acquisition,MO,H,M,1.065,memory_run-02,acquisition
163,25.251,3.0,CS+,animals/pike.jpg,Old,acquisition,MN,M,M,1.352,memory_run-03,extinction
174,103.201,3.0,CS+,animals/flea.jpg,Old,acquisition,DO,H,H,1.541,memory_run-03,acquisition
185,181.151,3.0,CS+,animals/crow.jpg,Old,acquisition,MO,H,M,1.259,memory_run-03,acquisition
187,195.334,3.0,CS+,animals/dragonfly.jpg,Old,acquisition,MO,H,M,1.075,memory_run-03,extinction
204,319.701,3.0,CS+,animals/angelfish.jpg,Old,acquisition,MO,H,M,1.012,memory_run-03,acquisition
216,416.568,3.0,CS+,animals/tiger.jpg,Old,acquisition,MO,H,M,0.975,memory_run-03,acquisition
225,489.335,3.0,CS+,animals/prayingmantis.jpg,Old,acquisition,MO,H,M,1.975,memory_run-03,extinction
227,505.501,3.0,CS+,animals/ostrich.jpg,Old,acquisition,MO,H,M,1.039,memory_run-03,baseline
1,11.1,3.0,CS+,animals/firebug.jpg,Old,extinction,MO,H,M,1.197,memory_run-01,acquisition
8,62.734,3.0,CS+,animals/mouse.jpg,Old,extinction,MO,H,M,1.101,memory_run-01,acquisition
26,204.201,3.0,CS+,animals/mink.jpg,Old,extinction,MO,H,M,1.024,memory_run-01,acquisition
29,225.484,3.0,CS+,animals/mahimahi.jpg,Old,extinction,MO,H,M,1.314,memory_run-01,baseline
47,360.817,3.0,CS+,animals/dramaderry.jpg,Old,extinction,MO,H,M,1.34,memory_run-01,baseline
56,428.484,3.0,CS+,animals/camel.jpg,Old,extinction,MO,H,M,2.633,memory_run-01,acquisition
66,504.251,3.0,CS+,animals/sheep.jpg,Old,extinction,MO,H,M,1.264,memory_run-01,acquisition
71,541.618,3.0,CS+,animals/herring.jpg,Old,extinction,MO,H,M,0.929,memory_run-01,acquisition
84,32.334,3.0,CS+,animals/partridge.jpg,Old,extinction,MN,M,M,1.361,memory_run-02,acquisition
91,81.851,3.0,CS+,animals/turkey.jpg,Old,extinction,MN,M,M,1.246,memory_run-02,acquisition
100,145.55100000000004,3.0,CS+,animals/seal.jpg,Old,extinction,DO,H,H,1.024,memory_run-02,acquisition
111,223.534,3.0,CS+,animals/chipmunk.jpg,Old,extinction,MO,H,M,1.054,memory_run-02,acquisition
122,303.384,3.0,CS+,animals/rabbit.jpg,Old,extinction,MO,H,M,0.965,memory_run-02,extinction
139,440.701,3.0,CS+,animals/brown_bear.jpg,Old,extinction,MO,H,M,0.974,memory_run-02,acquisition
147,505.401,3.0,CS+,animals/carp.jpg,Old,extinction,MO,H,M,0.856,memory_run-02,extinction
156,578.101,3.0,CS+,animals/anteater.jpg,Old,extinction,MO,H,M,1.284,memory_run-02,acquisition
175,110.301,3.0,CS+,animals/duck.jpg,Old,extinction,MN,M,M,1.366,memory_run-03,acquisition
179,138.61700000000002,3.0,CS+,animals/shark.jpg,Old,extinction,MO,H,M,1.274,memory_run-03,acquisition
184,174.051,3.0,CS+,animals/palmcockatoo.jpg,Old,extinction,MO,H,M,1.426,memory_run-03,acquisition
194,244.868,3.0,CS+,animals/ant.jpg,Old,extinction,MN,M,M,1.141,memory_run-03,baseline
206,335.834,3.0,CS+,animals/catfish.jpg,Old,extinction,MO,H,M,1.127,memory_run-03,extinction
219,440.818,3.0,CS+,animals/assassinbug.jpg,Old,extinction,MO,H,M,1.04,memory_run-03,acquisition
232,545.868,3.0,CS+,animals/baldeagle.jpg,Old,extinction,MN,M,M,1.967,memory_run-03,acquisition
236,578.168,3.0,CS+,animals/snail.jpg,Old,extinction,MO,H,M,1.388,memory_run-03,extinction
2,18.184,3.0,CS+,animals/balloonfish.jpg,New,foil,DO,FA,FA,1.601,memory_run-01,
7,55.63399999999999,3.0,CS+,animals/crane.jpg,New,foil,MO,FA,CR,2.471,memory_run-01,
12,94.05,3.0,CS+,animals/bullfrog.jpg,New,foil,MO,FA,CR,0.851,memory_run-01,
15,117.301,3.0,CS+,animals/monkey.jpg,New,foil,MO,FA,CR,0.867,memory_run-01,
23,179.951,3.0,CS+,animals/tortoise.jpg,New,foil,MO,FA,CR,1.315,memory_run-01,
31,240.617,3.0,CS+,animals/waterdragon.jpg,New,foil,MO,FA,CR,0.964,memory_run-01,
35,268.884,3.0,CS+,animals/hermitcrab.jpg,New,foil,MO,FA,CR,1.26,memory_run-01,
37,284.051,3.0,CS+,animals/stickinsect.jpg,New,foil,MN,CR,CR,1.902,memory_run-01,
42,322.434,3.0,CS+,animals/koala.jpg,New,foil,MO,FA,CR,1.341,memory_run-01,
51,391.11800000000005,3.0,CS+,animals/highlandcow.jpg,New,foil,MO,FA,CR,1.3530000000000002,memory_run-01,
55,420.418,3.0,CS+,animals/ladybug.jpg,New,foil,MO,FA,CR,1.262,memory_run-01,
58,443.634,3.0,CS+,animals/flounder.jpg,New,foil,MO,FA,CR,2.186,memory_run-01,
63,482.034,3.0,CS+,animals/panda.jpg,New,foil,MO,FA,CR,2.139,memory_run-01,
72,548.685,3.0,CS+,animals/octopus.jpg,New,foil,MO,FA,CR,2.057,memory_run-01,
74,564.851,3.0,CS+,animals/woodlouse.jpg,New,foil,MO,FA,CR,1.111,memory_run-01,
76,579.018,3.0,CS+,animals/seaslug.jpg,New,foil,MO,FA,CR,1.7,memory_run-01,
81,11.1,3.0,CS+,animals/stinkbug.jpg,New,foil,MO,FA,CR,1.016,memory_run-02,
86,46.467,3.0,CS+,animals/wasp.jpg,New,foil,MN,CR,CR,0.7929999999999999,memory_run-02,
95,110.151,3.0,CS+,animals/crab.jpg,New,foil,MO,FA,CR,1.124,memory_run-02,
98,131.36700000000002,3.0,CS+,animals/orangutan.jpg,New,foil,MO,FA,CR,1.709,memory_run-02,
101,152.651,3.0,CS+,animals/slug.jpg,New,foil,MO,FA,CR,1.185,memory_run-02,
105,181.017,3.0,CS+,animals/earthworm.jpg,New,foil,MN,CR,CR,1.429,memory_run-02,
110,216.451,3.0,CS+,animals/tragopan.jpg,New,foil,MO,FA,CR,0.989,memory_run-02,
117,266.034,3.0,CS+,animals/rooster.jpg,New,foil,MN,CR,CR,1.858,memory_run-02,
125,327.668,3.0,CS+,animals/beardeddragon.jpg,New,foil,MO,FA,CR,0.965,memory_run-02,
131,376.101,3.0,CS+,animals/caracal.jpg,New,foil,MN,CR,CR,1.511,memory_run-02,
133,392.251,3.0,CS+,animals/owl.jpg,New,foil,MN,CR,CR,1.548,memory_run-02,
135,408.401,3.0,CS+,animals/marlin.jpg,New,foil,MO,FA,CR,1.168,memory_run-02,
141,456.86800000000005,3.0,CS+,animals/leafinsect.jpg,New,foil,MN,CR,CR,1.798,memory_run-02,
142,464.935,3.0,CS+,animals/armadillo.jpg,New,foil,MN,CR,CR,1.205,memory_run-02,
154,561.951,3.0,CS+,animals/malaysianjunglenymph.jpg,New,foil,MN,CR,CR,1.509,memory_run-02,
158,594.235,3.0,CS+,animals/dove.jpg,New,foil,MO,FA,CR,0.924,memory_run-02,
161,11.117,3.0,CS+,animals/clam.jpg,New,foil,MN,CR,CR,1.55,memory_run-03,
164,32.334,3.0,CS+,animals/lizard.jpg,New,foil,MN,CR,CR,1.472,memory_run-03,
169,67.767,3.0,CS+,animals/deer.jpg,New,foil,MN,CR,CR,1.083,memory_run-03,
176,117.367,3.0,CS+,animals/penguin.jpg,New,foil,MN,CR,CR,0.974,memory_run-03,
182,159.901,3.0,CS+,animals/clownfish.jpg,New,foil,MN,CR,CR,1.773,memory_run-03,
188,202.417,3.0,CS+,animals/lobsterspiny.jpg,New,foil,MN,CR,CR,1.247,memory_run-03,
190,216.568,3.0,CS+,animals/emu.jpg,New,foil,MN,CR,CR,0.799,memory_run-03,
198,273.218,3.0,CS+,animals/cod.jpg,New,foil,MO,FA,CR,1.086,memory_run-03,
201,295.468,3.0,CS+,animals/ibises.jpg,New,foil,MN,CR,CR,1.068,memory_run-03,
208,351.968,3.0,CS+,animals/toucan.jpg,New,foil,MN,CR,CR,1.283,memory_run-03,
215,408.501,3.0,CS+,animals/dockbug2.jpg,New,foil,MN,CR,CR,0.999,memory_run-03,
218,432.735,3.0,CS+,animals/macaw.jpg,New,foil,MO,FA,CR,1.575,memory_run-03,
224,481.268,3.0,CS+,animals/vulture.jpg,New,foil,MN,CR,CR,1.031,memory_run-03,
226,497.418,3.0,CS+,animals/lion.jpg,New,foil,MO,FA,CR,1.473,memory_run-03,
228,513.585,3.0,CS+,animals/kangaroo.jpg,New,foil,MO,FA,CR,1.122,memory_run-03,
230,529.735,3.0,CS+,animals/gecko.jpg,New,foil,MO,FA,CR,1.495,memory_run-03,
0,4.034,3.0,CS-,tools/jumpercables.jpg,Old,baseline,MO,H,M,1.411,memory_run-01,acquisition
3,25.284,3.0,CS-,tools/workbench.jpg,Old,baseline,DO,H,H,1.025,memory_run-01,acquisition
27,211.301,3.0,CS-,tools/monkeywrench.jpg,Old,baseline,DO,H,H,1.422,memory_run-01,acquisition
33,254.751,3.0,CS-,tools/solderingtorch.jpg,Old,baseline,MO,H,M,1.083,memory_run-01,baseline
50,383.034,3.0,CS-,tools/edger.jpg,Old,baseline,MO,H,M,1.197,memory_run-01,acquisition
57,435.551,3.0,CS-,tools/measuringtape.jpg,Old,baseline,MO,H,M,1.592,memory_run-01,baseline
60,459.784,3.0,CS-,tools/microwave.jpg,Old,baseline,MO,H,M,2.11,memory_run-01,baseline
64,489.11800000000005,3.0,CS-,tools/camera.jpg,Old,baseline,MO,H,M,1.735,memory_run-01,baseline
88,60.617,3.0,CS-,tools/blower.jpg,Old,baseline,MO,H,M,1.929,memory_run-02,baseline
94,103.067,3.0,CS-,tools/airpump.jpg,Old,baseline,MO,H,M,0.991,memory_run-02,extinction
103,166.851,3.0,CS-,tools/duffelbag.jpg,Old,baseline,DO,H,H,1.702,memory_run-02,acquisition
108,202.284,3.0,CS-,tools/chainsaw.jpg,Old,baseline,MO,H,M,1.3219999999999998,memory_run-02,baseline
126,335.7340000000001,3.0,CS-,tools/toaster.jpg,Old,baseline,MO,H,M,2.272,memory_run-02,acquisition
129,359.951,3.0,CS-,tools/videogamecontroller.jpg,Old,baseline,DO,H,H,1.252,memory_run-02,acquisition
149,521.568,3.0,CS-,tools/squeegee.jpg,Old,baseline,MO,H,M,0.7609999999999999,memory_run-02,extinction
151,537.7180000000002,3.0,CS-,tools/hammer.jpg,Old,baseline,MO,H,M,0.933,memory_run-02,baseline
168,60.701,3.0,CS-,tools/padlock.jpg,Old,baseline,MO,H,M,1.148,memory_run-03,acquisition
172,89.051,3.0,CS-,tools/screwdriver.jpg,Old,baseline,MO,H,M,1.033,memory_run-03,acquisition
183,166.984,3.0,CS-,tools/bucket.jpg,Old,baseline,MN,M,M,0.7829999999999999,memory_run-03,extinction
195,251.968,3.0,CS-,tools/carpetblower.jpg,Old,baseline,MO,H,M,1.351,memory_run-03,baseline
200,287.384,3.0,CS-,tools/paintbrush.jpg,Old,baseline,MO,H,M,0.868,memory_run-03,extinction
217,424.651,3.0,CS-,tools/extensioncord.jpg,Old,baseline,MN,M,M,1.293,memory_run-03,acquisition
235,570.085,3.0,CS-,tools/treadmill.jpg,Old,baseline,MN,M,M,1.535,memory_run-03,baseline
237,586.252,3.0,CS-,tools/campingstove.jpg,Old,baseline,MO,H,M,1.4340000000000002,memory_run-03,baseline
17,133.501,3.0,CS-,tools/faxmachine.jpg,Old,acquisition,MO,H,M,0.78,memory_run-01,extinction
19,147.651,3.0,CS-,tools/gardenhose.jpg,Old,acquisition,MO,H,M,1.463,memory_run-01,extinction
24,188.017,3.0,CS-,tools/ropeandpulley.jpg,Old,acquisition,DO,H,H,1.991,memory_run-01,acquisition
36,276.967,3.0,CS-,tools/scissors.jpg,Old,acquisition,DO,H,H,1.473,memory_run-01,acquisition
43,330.517,3.0,CS-,tools/ladder.jpg,Old,acquisition,MO,H,M,1.541,memory_run-01,baseline
54,412.351,3.0,CS-,tools/plow.jpg,Old,acquisition,MN,M,M,1.411,memory_run-01,extinction
62,474.935,3.0,CS-,tools/hairdryer.jpg,Old,acquisition,MN,M,M,1.257,memory_run-01,baseline
73,556.768,3.0,CS-,tools/rollingpin.jpg,Old,acquisition,MO,H,M,1.068,memory_run-01,baseline
87,53.55,3.0,CS-,tools/shoehorn.jpg,Old,acquisition,MN,M,M,1.389,memory_run-02,baseline
96,117.234,3.0,CS-,tools/wheelbarrow.jpg,Old,acquisition,MO,H,M,0.882,memory_run-02,acquisition
104,173.951,3.0,CS-,tools/paintroller.jpg,Old,acquisition,MO,H,M,1.281,memory_run-02,baseline
107,195.201,3.0,CS-,tools/rake.jpg,Old,acquisition,MO,H,M,0.973,memory_run-02,baseline
130,368.034,3.0,CS-,tools/pliers.jpg,Old,acquisition,MO,H,M,0.898,memory_run-02,baseline
137,424.551,3.0,CS-,tools/chisel.jpg,Old,acquisition,MO,H,M,0.945,memory_run-02,baseline
140,448.785,3.0,CS-,tools/weldinghelmet.jpg,Old,acquisition,MN,M,M,1.421,memory_run-02,extinction
155,570.035,3.0,CS-,tools/stove.jpg,Old,acquisition,MO,H,M,1.196,memory_run-02,baseline
167,53.601000000000006,3.0,CS-,tools/gong.jpg,Old,acquisition,MN,M,M,0.991,memory_run-03,acquisition
171,81.95100000000002,3.0,CS-,tools/cheesegrater.jpg,Old,acquisition,MO,H,M,1.07,memory_run-03,baseline
180,145.701,3.0,CS-,tools/electricbreaker.jpg,Old,acquisition,MO,H,M,0.8740000000000001,memory_run-03,acquisition
186,188.251,3.0,CS-,tools/plunger.jpg,Old,acquisition,MO,H,M,0.903,memory_run-03,baseline
213,392.334,3.0,CS-,tools/beadingtool.jpg,Old,acquisition,MN,M,M,1.091,memory_run-03,baseline
214,400.418,3.0,CS-,tools/reflexhammer.jpg,Old,acquisition,MN,M,M,2.434,memory_run-03,baseline
223,473.185,3.0,CS-,tools/transmissionwrench.jpg,Old,acquisition,MN,M,M,1.093,memory_run-03,baseline
234,562.018,3.0,CS-,tools/drillbit.jpg,Old,acquisition,DN,M,M,1.332,memory_run-03,baseline
5,40.467,3.0,CS-,tools/blackboard.jpg,Old,extinction,MO,H,M,1.65,memory_run-01,extinction
9,69.834,3.0,CS-,tools/fan.jpg,Old,extinction,MO,H,M,1.266,memory_run-01,baseline
34,261.817,3.0,CS-,tools/measuringcups.jpg,Old,extinction,MO,H,M,1.896,memory_run-01,baseline
39,299.217,3.0,CS-,tools/ruler.jpg,Old,extinction,DO,H,H,2.044,memory_run-01,acquisition
46,352.7340000000001,3.0,CS-,tools/sparkplug.jpg,Old,extinction,MO,H,M,1.072,memory_run-01,acquisition
52,398.218,3.0,CS-,tools/levelmount.jpg,Old,extinction,MN,M,M,1.683,memory_run-01,extinction
65,497.184,3.0,CS-,tools/broom.jpg,Old,extinction,MO,H,M,0.935,memory_run-01,acquisition
67,511.318,3.0,CS-,tools/thermometer.jpg,Old,extinction,MN,M,M,1.215,memory_run-01,acquisition
90,74.767,3.0,CS-,tools/measuringdevice.jpg,Old,extinction,MO,H,M,1.186,memory_run-02,baseline
92,88.917,3.0,CS-,tools/eraser.jpg,Old,extinction,MN,M,M,1.045,memory_run-02,extinction
106,188.101,3.0,CS-,tools/lawnmower.jpg,Old,extinction,MO,H,M,1.073,memory_run-02,acquisition
119,280.16700000000003,3.0,CS-,tools/spoon.jpg,Old,extinction,MO,H,M,1.422,memory_run-02,baseline
123,311.468,3.0,CS-,tools/wrench.jpg,Old,extinction,MO,H,M,0.893,memory_run-02,baseline
128,351.901,3.0,CS-,tools/weedeater.jpg,Old,extinction,MO,H,M,1.296,memory_run-02,baseline
148,513.485,3.0,CS-,tools/routerplane.jpg,Old,extinction,MN,M,M,1.524,memory_run-02,baseline
150,529.635,3.0,CS-,tools/woodchipper.jpg,Old,extinction,MO,H,M,1.127,memory_run-02,baseline
170,74.851,3.0,CS-,tools/tubeflaring.jpg,Old,extinction,MN,M,M,0.909,memory_run-03,baseline
177,124.451,3.0,CS-,tools/pruner.jpg,Old,extinction,MN,M,M,1.136,memory_run-03,baseline
192,230.718,3.0,CS-,tools/beaker.jpg,Old,extinction,MN,M,M,0.748,memory_run-03,baseline
197,266.134,3.0,CS-,tools/sander.jpg,Old,extinction,MN,M,M,1.113,memory_run-03,extinction
205,327.751,3.0,CS-,tools/mallet.jpg,Old,extinction,MN,M,M,1.073,memory_run-03,acquisition
211,376.201,3.0,CS-,tools/viceclamp.jpg,Old,extinction,MO,H,M,1.378,memory_run-03,baseline
221,456.985,3.0,CS-,tools/benchdogs.jpg,Old,extinction,MN,M,M,1.375,memory_run-03,baseline
233,553.934,3.0,CS-,tools/vegetablepeeler.jpg,Old,extinction,MO,H,M,1.3230000000000002,memory_run-03,acquisition
4,32.384,3.0,CS-,tools/caulkinggun.jpg,New,foil,MO,FA,CR,1.153,memory_run-01,
6,48.534,3.0,CS-,tools/burnisher.jpg,New,foil,MO,FA,CR,1.401,memory_run-01,
10,77.9,3.0,CS-,tools/dremel.jpg,New,foil,MO,FA,CR,0.8320000000000001,memory_run-01,
14,110.217,3.0,CS-,tools/wateringcan.jpg,New,foil,MO,FA,CR,0.773,memory_run-01,
22,171.86700000000005,3.0,CS-,tools/level.jpg,New,foil,MO,FA,CR,1.16,memory_run-01,
25,196.101,3.0,CS-,tools/whistle.jpg,New,foil,MO,FA,CR,1.006,memory_run-01,
28,218.401,3.0,CS-,tools/whisk.jpg,New,foil,MO,FA,CR,1.609,memory_run-01,
30,232.551,3.0,CS-,tools/lantern.jpg,New,foil,MO,FA,CR,1.433,memory_run-01,
44,337.601,3.0,CS-,tools/engine.jpg,New,foil,MN,CR,CR,1.494,memory_run-01,
45,344.668,3.0,CS-,tools/grapplinghook.jpg,New,foil,MO,FA,CR,1.595,memory_run-01,
49,375.951,3.0,CS-,tools/magnet.jpg,New,foil,MN,CR,CR,1.408,memory_run-01,
59,451.718,3.0,CS-,tools/bolt.jpg,New,foil,MO,FA,CR,1.395,memory_run-01,
61,467.851,3.0,CS-,tools/keys.jpg,New,foil,MO,FA,CR,1.388,memory_run-01,
68,519.384,3.0,CS-,tools/electricdrill.jpg,New,foil,MO,FA,CR,2.421,memory_run-01,
70,534.535,3.0,CS-,tools/microscope.jpg,New,foil,MO,FA,CR,2.003,memory_run-01,
77,586.085,3.0,CS-,tools/mellonballer.jpg,New,foil,MN,CR,CR,1.816,memory_run-01,
80,4.034,3.0,CS-,tools/sawblade.jpg,New,foil,MO,FA,CR,2.512,memory_run-02,
89,67.684,3.0,CS-,tools/carabiner.jpg,New,foil,MO,FA,CR,1.123,memory_run-02,
93,95.984,3.0,CS-,tools/clamp.jpg,New,foil,MN,CR,CR,0.908,memory_run-02,
97,124.284,3.0,CS-,tools/pick.jpg,New,foil,MO,FA,CR,1.081,memory_run-02,
102,159.751,3.0,CS-,tools/anvil.jpg,New,foil,MO,FA,CR,1.105,memory_run-02,
109,209.367,3.0,CS-,tools/stapler.jpg,New,foil,MO,FA,CR,1.452,memory_run-02,
112,230.617,3.0,CS-,tools/razorblade.jpg,New,foil,MO,FA,CR,1.641,memory_run-02,
113,237.701,3.0,CS-,tools/scratchawl.jpg,New,foil,MO,FA,CR,0.976,memory_run-02,
120,287.251,3.0,CS-,tools/flashlight.jpg,New,foil,MO,FA,CR,0.779,memory_run-02,
124,319.568,3.0,CS-,tools/battery.jpg,New,foil,MO,FA,CR,1.405,memory_run-02,
134,400.318,3.0,CS-,tools/telephone.jpg,New,foil,MO,FA,CR,1.042,memory_run-02,
138,432.61800000000005,3.0,CS-,tools/duster.jpg,New,foil,MN,CR,CR,1.135,memory_run-02,
143,473.035,3.0,CS-,tools/hedgeshears.jpg,New,foil,MO,FA,CR,1.04,memory_run-02,
144,481.135,3.0,CS-,tools/laptop.jpg,New,foil,MO,FA,CR,1.7719999999999998,memory_run-02,
146,497.335,3.0,CS-,tools/snowbrush.jpg,New,foil,MO,FA,CR,0.8340000000000001,memory_run-02,
159,602.318,3.0,CS-,tools/pizzacutter.jpg,New,foil,MO,FA,CR,0.999,memory_run-02,
162,18.184,3.0,CS-,tools/cuttingboard.jpg,New,foil,MN,CR,CR,1.178,memory_run-03,
165,39.417,3.0,CS-,tools/smartphone.jpg,New,foil,DN,CR,CR,0.857,memory_run-03,
166,46.50100000000001,3.0,CS-,tools/compass.jpg,New,foil,MN,CR,CR,1.074,memory_run-03,
178,131.55100000000002,3.0,CS-,tools/vacuumcleaner.jpg,New,foil,MN,CR,CR,1.063,memory_run-03,
181,152.80100000000004,3.0,CS-,tools/hourglass.jpg,New,foil,MN,CR,CR,1.225,memory_run-03,
191,223.634,3.0,CS-,tools/clippers.jpg,New,foil,MN,CR,CR,0.722,memory_run-03,
193,237.784,3.0,CS-,tools/crank.jpg,New,foil,MN,CR,CR,0.882,memory_run-03,
196,259.068,3.0,CS-,tools/staplegun.jpg,New,foil,MO,FA,CR,1.149,memory_run-03,
202,303.568,3.0,CS-,tools/watch.jpg,New,foil,MN,CR,CR,1.145,memory_run-03,
203,311.634,3.0,CS-,tools/electricsewingmachine.jpg,New,foil,MO,FA,CR,1.378,memory_run-03,
209,360.034,3.0,CS-,tools/nailgun.jpg,New,foil,MN,CR,CR,1.052,memory_run-03,
210,368.11800000000005,3.0,CS-,tools/vicegrips.jpg,New,foil,MO,FA,CR,1.287,memory_run-03,
229,521.668,3.0,CS-,tools/stethoscope.jpg,New,foil,DN,CR,CR,1.6780000000000002,memory_run-03,
231,537.8009999999998,3.0,CS-,tools/magnifyingglass.jpg,New,foil,MN,CR,CR,2.215,memory_run-03,
238,594.335,3.0,CS-,tools/tape.jpg,New,foil,MO,FA,CR,1.813,memory_run-03,
239,602.4019999999998,3.0,CS-,tools/shovel.jpg,New,foil,MO,FA,CR,1.064,memory_run-03,
