onset,duration,trial_type,stimulus,memory_condition,encode_phase,response,low_confidence_accuracy,high_confidence_accuracy,response_time,phase,source_memory
25.266,3.0,CS+,tools/gong.jpg,Old,baseline,DO,H,H,1.3840000000000001,memory_run-01,acquisition
49.51600000000001,3.0,CS+,tools/reflexhammer.jpg,Old,baseline,DO,H,H,1.247,memory_run-01,baseline
221.3,3.0,CS+,tools/transmissionwrench.jpg,Old,baseline,DN,M,M,1.771,memory_run-01,extinction
258.7,3.0,CS+,tools/cheesegrater.jpg,Old,baseline,MN,M,M,1.734,memory_run-01,baseline
312.233,3.0,CS+,tools/drillbit.jpg,Old,baseline,MO,H,M,1.8880000000000001,memory_run-01,extinction
439.483,3.0,CS+,tools/electricbreaker.jpg,Old,baseline,MN,M,M,1.794,memory_run-01,baseline
469.8,3.0,CS+,tools/plunger.jpg,Old,baseline,DO,H,H,1.125,memory_run-01,baseline
492.05,3.0,CS+,tools/beadingtool.jpg,Old,baseline,MO,H,M,2.2569999999999997,memory_run-01,acquisition
53.617,3.0,CS+,tools/hairdryer.jpg,Old,baseline,DN,M,M,1.1420000000000001,memory_run-02,extinction
117.417,3.0,CS+,tools/gardenhose.jpg,Old,baseline,DO,H,H,1.304,memory_run-02,baseline
202.567,3.0,CS+,tools/ladder.jpg,Old,baseline,MO,H,M,1.3530000000000002,memory_run-02,extinction
209.667,3.0,CS+,tools/scissors.jpg,Old,baseline,MO,H,M,1.7069999999999999,memory_run-02,baseline
287.58299999999997,3.0,CS+,tools/ropeandpulley.jpg,Old,baseline,DN,M,M,2.128,memory_run-02,baseline
376.467,3.0,CS+,tools/rollingpin.jpg,Old,baseline,MN,M,M,1.724,memory_run-02,extinction
481.61699999999996,3.0,CS+,tools/faxmachine.jpg,Old,baseline,DN,M,M,0.988,memory_run-02,extinction
489.717,3.0,CS+,tools/plow.jpg,Old,baseline,DN,M,M,1.672,memory_run-02,baseline
53.6,3.0,CS+,tools/chisel.jpg,Old,baseline,MN,M,M,1.7590000000000001,memory_run-03,baseline
82.0,3.0,CS+,tools/pliers.jpg,Old,baseline,MN,M,M,2.08,memory_run-03,extinction
230.7,3.0,CS+,tools/rake.jpg,Old,baseline,DO,H,H,1.9969999999999999,memory_run-03,baseline
251.9,3.0,CS+,tools/weldinghelmet.jpg,Old,baseline,DO,H,H,1.46,memory_run-03,baseline
343.833,3.0,CS+,tools/shoehorn.jpg,Old,baseline,DO,H,H,2.077,memory_run-03,acquisition
424.63300000000004,3.0,CS+,tools/stove.jpg,Old,baseline,MN,M,M,1.614,memory_run-03,acquisition
481.15,3.0,CS+,tools/paintroller.jpg,Old,baseline,MN,M,M,1.531,memory_run-03,extinction
594.2330000000002,3.0,CS+,tools/wheelbarrow.jpg,Old,baseline,DO,H,H,1.2409999999999999,memory_run-03,acquisition
4.016,3.0,CS+,tools/mallet.jpg,Old,acquisition,DO,H,H,2.343,memory_run-01,baseline
33.35,3.0,CS+,tools/benchdogs.jpg,Old,acquisition,DN,M,M,1.285,memory_run-01,extinction
192.967,3.0,CS+,tools/vegetablepeeler.jpg,Old,acquisition,DO,H,H,1.08,memory_run-01,acquisition
244.533,3.0,CS+,tools/tubeflaring.jpg,Old,acquisition,MN,M,M,2.241,memory_run-01,extinction
379.88300000000004,3.0,CS+,tools/sander.jpg,Old,acquisition,DO,H,H,0.8540000000000001,memory_run-01,extinction
416.26599999999996,3.0,CS+,tools/beaker.jpg,Old,acquisition,MN,M,M,1.8330000000000002,memory_run-01,extinction
570.816,3.0,CS+,tools/pruner.jpg,Old,acquisition,DO,H,H,0.945,memory_run-01,acquisition
577.883,3.0,CS+,tools/viceclamp.jpg,Old,acquisition,DO,H,H,1.546,memory_run-01,baseline
32.4,3.0,CS+,tools/fan.jpg,Old,acquisition,MO,H,M,2.149,memory_run-02,acquisition
110.31700000000001,3.0,CS+,tools/measuringcups.jpg,Old,acquisition,DN,M,M,1.604,memory_run-02,extinction
152.917,3.0,CS+,tools/sparkplug.jpg,Old,acquisition,MN,M,M,1.831,memory_run-02,acquisition
188.36700000000002,3.0,CS+,tools/thermometer.jpg,Old,acquisition,DN,M,M,1.085,memory_run-02,acquisition
327.983,3.0,CS+,tools/broom.jpg,Old,acquisition,MN,M,M,1.59,memory_run-02,acquisition
433.11699999999996,3.0,CS+,tools/ruler.jpg,Old,acquisition,MN,M,M,2.2880000000000003,memory_run-02,baseline
570.633,3.0,CS+,tools/blackboard.jpg,Old,acquisition,DO,H,H,1.028,memory_run-02,baseline
602.967,3.0,CS+,tools/levelmount.jpg,Old,acquisition,DO,H,H,1.216,memory_run-02,acquisition
18.2,3.0,CS+,tools/woodchipper.jpg,Old,acquisition,MN,M,M,2.08,memory_run-03,extinction
89.066,3.0,CS+,tools/weedeater.jpg,Old,acquisition,DN,M,M,1.531,memory_run-03,extinction
202.38299999999998,3.0,CS+,tools/measuringdevice.jpg,Old,acquisition,MO,H,M,2.391,memory_run-03,baseline
258.983,3.0,CS+,tools/lawnmower.jpg,Old,acquisition,DO,H,H,0.856,memory_run-03,acquisition
311.51599999999996,3.0,CS+,tools/wrench.jpg,Old,acquisition,DO,H,H,1.2570000000000001,memory_run-03,baseline
335.75,3.0,CS+,tools/routerplane.jpg,Old,acquisition,MN,M,M,1.6219999999999999,memory_run-03,baseline
497.3,3.0,CS+,tools/spoon.jpg,Old,acquisition,MO,H,M,1.601,memory_run-03,baseline
513.466,3.0,CS+,tools/eraser.jpg,Old,acquisition,MO,H,M,1.588,memory_run-03,acquisition
64.65,3.0,CS+,tools/extensioncord.jpg,Old,extinction,DN,M,M,1.0190000000000001,memory_run-01,extinction
94.98299999999999,3.0,CS+,tools/carpetblower.jpg,Old,extinction,DO,H,H,1.405,memory_run-01,baseline
170.767,3.0,CS+,tools/screwdriver.jpg,Old,extinction,MO,H,M,2.597,memory_run-01,baseline
265.783,3.0,CS+,tools/treadmill.jpg,Old,extinction,MO,H,M,2.312,memory_run-01,extinction
305.15,3.0,CS+,tools/padlock.jpg,Old,extinction,MO,H,M,1.588,memory_run-01,acquisition
348.6,3.0,CS+,tools/bucket.jpg,Old,extinction,DO,H,H,1.15,memory_run-01,baseline
538.516,3.0,CS+,tools/paintbrush.jpg,Old,extinction,MO,H,M,1.683,memory_run-01,baseline
602.116,3.0,CS+,tools/campingstove.jpg,Old,extinction,DN,M,M,1.235,memory_run-01,extinction
18.217,3.0,CS+,tools/workbench.jpg,Old,extinction,DO,H,H,1.115,memory_run-02,baseline
74.883,3.0,CS+,tools/microwave.jpg,Old,extinction,DN,M,M,1.124,memory_run-02,acquisition
174.167,3.0,CS+,tools/monkeywrench.jpg,Old,extinction,DO,H,H,1.218,memory_run-02,baseline
273.433,3.0,CS+,tools/measuringtape.jpg,Old,extinction,DO,H,H,1.454,memory_run-02,acquisition
352.233,3.0,CS+,tools/edger.jpg,Old,extinction,MN,M,M,1.608,memory_run-02,acquisition
441.217,3.0,CS+,tools/camera.jpg,Old,extinction,MO,H,M,2.94,memory_run-02,baseline
465.467,3.0,CS+,tools/solderingtorch.jpg,Old,extinction,MO,H,M,1.5330000000000001,memory_run-02,acquisition
554.467,3.0,CS+,tools/jumpercables.jpg,Old,extinction,DO,H,H,1.091,memory_run-02,baseline
25.266,3.0,CS+,tools/chainsaw.jpg,Old,extinction,DO,H,H,1.7080000000000002,memory_run-03,acquisition
124.46600000000001,3.0,CS+,tools/airpump.jpg,Old,extinction,DN,M,M,1.238,memory_run-03,extinction
223.63299999999998,3.0,CS+,tools/duffelbag.jpg,Old,extinction,,M,M,,memory_run-03,baseline
273.133,3.0,CS+,tools/toaster.jpg,Old,extinction,DN,M,M,1.4040000000000001,memory_run-03,extinction
351.916,3.0,CS+,tools/hammer.jpg,Old,extinction,MO,H,M,1.338,memory_run-03,acquisition
360.0,3.0,CS+,tools/blower.jpg,Old,extinction,DO,H,H,0.8740000000000001,memory_run-03,baseline
456.93300000000005,3.0,CS+,tools/videogamecontroller.jpg,Old,extinction,MN,M,M,2.414,memory_run-03,baseline
465.0,3.0,CS+,tools/squeegee.jpg,Old,extinction,MN,M,M,1.5230000000000001,memory_run-03,acquisition
11.116,3.0,CS+,tools/whisk.jpg,New,foil,,CR,CR,,memory_run-01,
18.183,3.0,CS+,tools/caulkinggun.jpg,New,foil,MN,CR,CR,1.355,memory_run-01,
71.733,3.0,CS+,tools/dremel.jpg,New,foil,DN,CR,CR,1.554,memory_run-01,
79.816,3.0,CS+,tools/bolt.jpg,New,foil,MN,CR,CR,1.811,memory_run-01,
156.6,3.0,CS+,tools/burnisher.jpg,New,foil,DO,FA,FA,1.136,memory_run-01,
185.9,3.0,CS+,tools/level.jpg,New,foil,,CR,CR,,memory_run-01,
280.933,3.0,CS+,tools/magnet.jpg,New,foil,MO,FA,CR,1.9969999999999999,memory_run-01,
297.08299999999997,3.0,CS+,tools/grapplinghook.jpg,New,foil,DN,CR,CR,1.2109999999999999,memory_run-01,
363.75,3.0,CS+,tools/keys.jpg,New,foil,MO,FA,CR,1.729,memory_run-01,
395.05,3.0,CS+,tools/engine.jpg,New,foil,DN,CR,CR,1.381,memory_run-01,
402.116,3.0,CS+,tools/microscope.jpg,New,foil,MO,FA,CR,1.53,memory_run-01,
447.566,3.0,CS+,tools/mellonballer.jpg,New,foil,DN,CR,CR,1.27,memory_run-01,
461.716,3.0,CS+,tools/lantern.jpg,New,foil,DO,FA,FA,1.871,memory_run-01,
484.966,3.0,CS+,tools/electricdrill.jpg,New,foil,MN,CR,CR,2.311,memory_run-01,
554.6659999999998,3.0,CS+,tools/whistle.jpg,New,foil,DO,FA,FA,0.826,memory_run-01,
585.966,3.0,CS+,tools/wateringcan.jpg,New,foil,MN,CR,CR,2.0140000000000002,memory_run-01,
4.033,3.0,CS+,tools/battery.jpg,New,foil,MN,CR,CR,2.7319999999999998,memory_run-02,
25.3,3.0,CS+,tools/duster.jpg,New,foil,DN,CR,CR,1.3940000000000001,memory_run-02,
39.467,3.0,CS+,tools/anvil.jpg,New,foil,DO,FA,FA,0.963,memory_run-02,
103.23299999999999,3.0,CS+,tools/hedgeshears.jpg,New,foil,DO,FA,FA,1.176,memory_run-02,
167.067,3.0,CS+,tools/carabiner.jpg,New,foil,DN,CR,CR,1.7890000000000001,memory_run-02,
245.11700000000002,3.0,CS+,tools/pizzacutter.jpg,New,foil,MN,CR,CR,1.496,memory_run-02,
252.183,3.0,CS+,tools/sawblade.jpg,New,foil,MO,FA,CR,1.2930000000000001,memory_run-02,
259.267,3.0,CS+,tools/snowbrush.jpg,New,foil,DN,CR,CR,1.6569999999999998,memory_run-02,
295.6670000000001,3.0,CS+,tools/stapler.jpg,New,foil,MN,CR,CR,2.38,memory_run-02,
303.733,3.0,CS+,tools/clamp.jpg,New,foil,MO,FA,CR,1.61,memory_run-02,
319.9170000000001,3.0,CS+,tools/telephone.jpg,New,foil,MN,CR,CR,2.061,memory_run-02,
384.56699999999995,3.0,CS+,tools/razorblade.jpg,New,foil,DN,CR,CR,1.489,memory_run-02,
449.31699999999995,3.0,CS+,tools/laptop.jpg,New,foil,DN,CR,CR,0.996,memory_run-02,
473.533,3.0,CS+,tools/flashlight.jpg,New,foil,MO,FA,CR,1.327,memory_run-02,
505.917,3.0,CS+,tools/scratchawl.jpg,New,foil,MO,FA,CR,1.7180000000000002,memory_run-02,
546.4,3.0,CS+,tools/pick.jpg,New,foil,,CR,CR,,memory_run-02,
32.35,3.0,CS+,tools/hourglass.jpg,New,foil,DO,FA,FA,1.392,memory_run-03,
110.316,3.0,CS+,tools/crank.jpg,New,foil,DN,CR,CR,1.113,memory_run-03,
117.383,3.0,CS+,tools/clippers.jpg,New,foil,DN,CR,CR,1.473,memory_run-03,
131.55,3.0,CS+,tools/nailgun.jpg,New,foil,MO,FA,CR,1.986,memory_run-03,
166.983,3.0,CS+,tools/vicegrips.jpg,New,foil,MO,FA,CR,1.906,memory_run-03,
181.15,3.0,CS+,tools/shovel.jpg,New,foil,MO,FA,CR,1.6440000000000001,memory_run-03,
216.55,3.0,CS+,tools/cuttingboard.jpg,New,foil,DN,CR,CR,1.052,memory_run-03,
266.066,3.0,CS+,tools/staplegun.jpg,New,foil,DN,CR,CR,1.348,memory_run-03,
384.233,3.0,CS+,tools/compass.jpg,New,foil,MO,FA,CR,1.608,memory_run-03,
400.38300000000004,3.0,CS+,tools/electricsewingmachine.jpg,New,foil,MN,CR,CR,1.704,memory_run-03,
416.55,3.0,CS+,tools/watch.jpg,New,foil,DN,CR,CR,1.0390000000000001,memory_run-03,
440.783,3.0,CS+,tools/tape.jpg,New,foil,MO,FA,CR,2.281,memory_run-03,
448.85,3.0,CS+,tools/magnifyingglass.jpg,New,foil,MN,CR,CR,1.736,memory_run-03,
473.083,3.0,CS+,tools/smartphone.jpg,New,foil,DN,CR,CR,1.167,memory_run-03,
578.0830000000002,3.0,CS+,tools/stethoscope.jpg,New,foil,MN,CR,CR,2.4819999999999998,memory_run-03,
602.316,3.0,CS+,tools/vacuumcleaner.jpg,New,foil,DN,CR,CR,0.988,memory_run-03,
125.3,3.0,CS-,animals/tiger.jpg,Old,baseline,DO,H,H,1.081,memory_run-01,extinction
132.366,3.0,CS-,animals/prayingmantis.jpg,Old,baseline,DO,H,H,2.9560000000000004,memory_run-01,acquisition
178.833,3.0,CS-,animals/flea.jpg,Old,baseline,DO,H,H,1.66,memory_run-01,acquisition
214.21599999999998,3.0,CS-,animals/angelfish.jpg,Old,baseline,MN,M,M,1.087,memory_run-01,acquisition
251.61599999999999,3.0,CS-,animals/dragonfly.jpg,Old,baseline,MO,H,M,2.468,memory_run-01,baseline
319.316,3.0,CS-,animals/crow.jpg,Old,baseline,MO,H,M,1.965,memory_run-01,baseline
424.333,3.0,CS-,animals/pike.jpg,Old,baseline,MN,M,M,1.405,memory_run-01,extinction
499.13300000000004,3.0,CS-,animals/ostrich.jpg,Old,baseline,MO,H,M,1.5090000000000001,memory_run-01,extinction
11.117,3.0,CS-,animals/giraffe.jpg,Old,baseline,DO,H,H,1.2590000000000001,memory_run-02,baseline
138.717,3.0,CS-,animals/mole.jpg,Old,baseline,MN,M,M,1.5190000000000001,memory_run-02,extinction
223.86700000000002,3.0,CS-,animals/gerbil.jpg,Old,baseline,MO,H,M,1.32,memory_run-02,acquisition
266.367,3.0,CS-,animals/caterpillarpeacockmoth.jpg,Old,baseline,DO,H,H,2.1,memory_run-02,extinction
311.817,3.0,CS-,animals/porcupine.jpg,Old,baseline,MO,H,M,1.671,memory_run-02,baseline
408.81699999999995,3.0,CS-,animals/pigeon.jpg,Old,baseline,MO,H,M,1.5030000000000001,memory_run-02,extinction
522.117,3.0,CS-,animals/boar.jpg,Old,baseline,MN,M,M,2.17,memory_run-02,baseline
530.217,3.0,CS-,animals/pelican.jpg,Old,baseline,MO,H,M,1.5230000000000001,memory_run-02,acquisition
4.033,3.0,CS-,animals/leopard.jpg,Old,baseline,MN,M,M,1.472,memory_run-03,extinction
138.65,3.0,CS-,animals/herculesbeetle.jpg,Old,baseline,DO,H,H,1.739,memory_run-03,baseline
145.75,3.0,CS-,animals/quail.jpg,Old,baseline,DN,M,M,2.0709999999999997,memory_run-03,extinction
209.46599999999998,3.0,CS-,animals/cow.jpg,Old,baseline,DN,M,M,2.225,memory_run-03,extinction
295.366,3.0,CS-,animals/hummingbird.jpg,Old,baseline,DN,M,M,0.8909999999999999,memory_run-03,acquisition
319.6,3.0,CS-,animals/snapper.jpg,Old,baseline,MN,M,M,1.3519999999999999,memory_run-03,acquisition
529.633,3.0,CS-,animals/waterbuffalo.jpg,Old,baseline,MO,H,M,1.6269999999999998,memory_run-03,acquisition
561.933,3.0,CS-,animals/baboon.jpg,Old,baseline,DO,H,H,1.261,memory_run-03,baseline
86.9,3.0,CS-,animals/baldeagle.jpg,Old,acquisition,DO,H,H,2.3,memory_run-01,baseline
103.066,3.0,CS-,animals/duck.jpg,Old,acquisition,DO,H,H,1.2830000000000001,memory_run-01,baseline
163.683,3.0,CS-,animals/snail.jpg,Old,acquisition,MO,H,M,2.447,memory_run-01,acquisition
289.0,3.0,CS-,animals/ant.jpg,Old,acquisition,MO,H,M,1.621,memory_run-01,extinction
326.383,3.0,CS-,animals/shark.jpg,Old,acquisition,MN,M,M,1.5830000000000002,memory_run-01,extinction
409.18300000000005,3.0,CS-,animals/palmcockatoo.jpg,Old,acquisition,DN,M,M,1.8219999999999998,memory_run-01,baseline
530.433,3.0,CS-,animals/assassinbug.jpg,Old,acquisition,MN,M,M,1.692,memory_run-01,baseline
546.5830000000002,3.0,CS-,animals/catfish.jpg,Old,acquisition,DO,H,H,2.39,memory_run-01,acquisition
67.817,3.0,CS-,animals/dramaderry.jpg,Old,acquisition,MN,M,M,1.713,memory_run-02,acquisition
131.61700000000002,3.0,CS-,animals/mouse.jpg,Old,acquisition,MO,H,M,1.692,memory_run-02,extinction
181.267,3.0,CS-,animals/camel.jpg,Old,acquisition,DO,H,H,1.489,memory_run-02,acquisition
195.467,3.0,CS-,animals/mahimahi.jpg,Old,acquisition,MO,H,M,1.656,memory_run-02,acquisition
344.167,3.0,CS-,animals/firebug.jpg,Old,acquisition,MO,H,M,2.395,memory_run-02,extinction
368.38300000000004,3.0,CS-,animals/herring.jpg,Old,acquisition,MN,M,M,1.591,memory_run-02,acquisition
457.38300000000004,3.0,CS-,animals/sheep.jpg,Old,acquisition,DN,M,M,1.2890000000000001,memory_run-02,baseline
497.81699999999995,3.0,CS-,animals/mink.jpg,Old,acquisition,DO,H,H,1.601,memory_run-02,baseline
39.45,3.0,CS-,animals/rabbit.jpg,Old,acquisition,MN,M,M,1.3,memory_run-03,extinction
96.15,3.0,CS-,animals/seal.jpg,Old,acquisition,DO,H,H,2.286,memory_run-03,acquisition
159.916,3.0,CS-,animals/carp.jpg,Old,acquisition,MN,M,M,1.5659999999999998,memory_run-03,acquisition
237.766,3.0,CS-,animals/chipmunk.jpg,Old,acquisition,MN,M,M,1.4809999999999999,memory_run-03,extinction
287.283,3.0,CS-,animals/brown_bear.jpg,Old,acquisition,MO,H,M,1.405,memory_run-03,acquisition
327.68300000000005,3.0,CS-,animals/turkey.jpg,Old,acquisition,,M,M,,memory_run-03,extinction
505.38300000000004,3.0,CS-,animals/partridge.jpg,Old,acquisition,DN,M,M,1.4769999999999999,memory_run-03,acquisition
586.15,3.0,CS-,animals/anteater.jpg,Old,acquisition,DN,M,M,1.569,memory_run-03,extinction
41.433,3.0,CS-,animals/reindeer.jpg,Old,extinction,MO,H,M,1.8359999999999999,memory_run-01,baseline
148.533,3.0,CS-,animals/elephantafrican.jpg,Old,extinction,DO,H,H,1.3330000000000002,memory_run-01,acquisition
200.033,3.0,CS-,animals/aardvark.jpg,Old,extinction,DO,H,H,1.089,memory_run-01,baseline
356.68300000000005,3.0,CS-,animals/rhino.jpg,Old,extinction,DO,H,H,1.4,memory_run-01,acquisition
387.966,3.0,CS-,animals/skunk.jpg,Old,extinction,MO,H,M,2.1390000000000002,memory_run-01,extinction
515.283,3.0,CS-,animals/zebra.jpg,Old,extinction,DN,M,M,2.4730000000000003,memory_run-01,extinction
562.75,3.0,CS-,animals/llama.jpg,Old,extinction,DO,H,H,1.432,memory_run-01,extinction
594.033,3.0,CS-,animals/finch.jpg,Old,extinction,MN,M,M,1.7080000000000002,memory_run-01,baseline
60.717,3.0,CS-,animals/horse.jpg,Old,extinction,MN,M,M,1.788,memory_run-02,baseline
96.167,3.0,CS-,animals/caterpillarhawkmoth.jpg,Old,extinction,MN,M,M,1.517,memory_run-02,baseline
216.767,3.0,CS-,animals/cricket.jpg,Old,extinction,MN,M,M,2.141,memory_run-02,extinction
280.517,3.0,CS-,animals/shrimp.jpg,Old,extinction,MN,M,M,2.832,memory_run-02,extinction
336.06699999999995,3.0,CS-,animals/hyena.jpg,Old,extinction,MO,H,M,2.193,memory_run-02,acquisition
416.917,3.0,CS-,animals/goldfish.jpg,Old,extinction,MN,M,M,1.827,memory_run-02,extinction
578.717,3.0,CS-,animals/marmot.jpg,Old,extinction,MO,H,M,1.7009999999999998,memory_run-02,acquisition
594.867,3.0,CS-,animals/flamingo.jpg,Old,extinction,MN,M,M,1.567,memory_run-02,baseline
60.7,3.0,CS-,animals/starfish.jpg,Old,extinction,MN,M,M,2.1069999999999998,memory_run-03,acquisition
74.9,3.0,CS-,animals/cat.jpg,Old,extinction,DN,M,M,0.991,memory_run-03,baseline
174.06599999999997,3.0,CS-,animals/halibut.jpg,Old,extinction,DN,M,M,1.075,memory_run-03,acquisition
244.833,3.0,CS-,animals/racoon.jpg,Old,extinction,MO,H,M,1.93,memory_run-03,baseline
303.433,3.0,CS-,animals/cranebug.jpg,Old,extinction,DN,M,M,2.501,memory_run-03,baseline
376.166,3.0,CS-,animals/perch.jpg,Old,extinction,MN,M,M,1.2770000000000001,memory_run-03,extinction
521.55,3.0,CS-,animals/salmon.jpg,Old,extinction,MN,M,M,1.4240000000000002,memory_run-03,acquisition
570.0,3.0,CS-,animals/canary.jpg,Old,extinction,DN,M,M,1.3019999999999998,memory_run-03,acquisition
56.583,3.0,CS-,animals/stickinsect.jpg,New,foil,DO,FA,FA,1.0170000000000001,memory_run-01,
111.133,3.0,CS-,animals/hermitcrab.jpg,New,foil,DN,CR,CR,1.358,memory_run-01,
118.21700000000001,3.0,CS-,animals/seaslug.jpg,New,foil,DN,CR,CR,1.46,memory_run-01,
140.467,3.0,CS-,animals/koala.jpg,New,foil,MN,CR,CR,1.849,memory_run-01,
207.11700000000002,3.0,CS-,animals/octopus.jpg,New,foil,MN,CR,CR,1.3880000000000001,memory_run-01,
228.38299999999998,3.0,CS-,animals/panda.jpg,New,foil,MO,FA,CR,1.724,memory_run-01,
236.46599999999998,3.0,CS-,animals/highlandcow.jpg,New,foil,DN,CR,CR,1.5119999999999998,memory_run-01,
273.85,3.0,CS-,animals/tortoise.jpg,New,foil,MN,CR,CR,1.625,memory_run-01,
333.45,3.0,CS-,animals/woodlouse.jpg,New,foil,MN,CR,CR,1.8730000000000002,memory_run-01,
340.533,3.0,CS-,animals/flounder.jpg,New,foil,MN,CR,CR,1.511,memory_run-01,
371.816,3.0,CS-,animals/crane.jpg,New,foil,DN,CR,CR,1.229,memory_run-01,
431.416,3.0,CS-,animals/balloonfish.jpg,New,foil,DN,CR,CR,1.33,memory_run-01,
454.65,3.0,CS-,animals/bullfrog.jpg,New,foil,DO,FA,FA,1.3459999999999999,memory_run-01,
477.88300000000004,3.0,CS-,animals/waterdragon.jpg,New,foil,MN,CR,CR,1.794,memory_run-01,
507.216,3.0,CS-,animals/monkey.jpg,New,foil,MO,FA,CR,1.495,memory_run-01,
522.366,3.0,CS-,animals/ladybug.jpg,New,foil,MN,CR,CR,1.482,memory_run-01,
46.533,3.0,CS-,animals/slug.jpg,New,foil,DN,CR,CR,1.045,memory_run-02,
81.96700000000001,3.0,CS-,animals/dove.jpg,New,foil,MN,CR,CR,2.16,memory_run-02,
89.06700000000002,3.0,CS-,animals/beardeddragon.jpg,New,foil,MN,CR,CR,2.503,memory_run-02,
124.51700000000001,3.0,CS-,animals/marlin.jpg,New,foil,MN,CR,CR,1.8030000000000002,memory_run-02,
145.817,3.0,CS-,animals/earthworm.jpg,New,foil,DN,CR,CR,1.121,memory_run-02,
159.983,3.0,CS-,animals/orangutan.jpg,New,foil,MO,FA,CR,1.683,memory_run-02,
230.967,3.0,CS-,animals/rooster.jpg,New,foil,MO,FA,CR,1.78,memory_run-02,
238.033,3.0,CS-,animals/malaysianjunglenymph.jpg,New,foil,DN,CR,CR,1.317,memory_run-02,
360.31699999999995,3.0,CS-,animals/wasp.jpg,New,foil,MN,CR,CR,2.114,memory_run-02,
392.667,3.0,CS-,animals/caracal.jpg,New,foil,DN,CR,CR,1.128,memory_run-02,
400.733,3.0,CS-,animals/owl.jpg,New,foil,DN,CR,CR,1.953,memory_run-02,
425.017,3.0,CS-,animals/tragopan.jpg,New,foil,DN,CR,CR,1.268,memory_run-02,
514.0169999999998,3.0,CS-,animals/stinkbug.jpg,New,foil,MN,CR,CR,1.757,memory_run-02,
538.317,3.0,CS-,animals/armadillo.jpg,New,foil,DN,CR,CR,2.11,memory_run-02,
562.567,3.0,CS-,animals/crab.jpg,New,foil,MN,CR,CR,1.3940000000000001,memory_run-02,
586.817,3.0,CS-,animals/leafinsect.jpg,New,foil,,CR,CR,,memory_run-02,
11.116,3.0,CS-,animals/dockbug2.jpg,New,foil,DN,CR,CR,1.28,memory_run-03,
46.51600000000001,3.0,CS-,animals/lion.jpg,New,foil,MN,CR,CR,1.485,memory_run-03,
67.8,3.0,CS-,animals/penguin.jpg,New,foil,MN,CR,CR,2.184,memory_run-03,
103.23299999999999,3.0,CS-,animals/emu.jpg,New,foil,MO,FA,CR,1.804,memory_run-03,
152.833,3.0,CS-,animals/clownfish.jpg,New,foil,MO,FA,CR,1.254,memory_run-03,
188.21599999999998,3.0,CS-,animals/ibises.jpg,New,foil,DN,CR,CR,1.153,memory_run-03,
195.3,3.0,CS-,animals/kangaroo.jpg,New,foil,DO,FA,FA,2.4930000000000003,memory_run-03,
280.216,3.0,CS-,animals/toucan.jpg,New,foil,DN,CR,CR,1.3330000000000002,memory_run-03,
368.083,3.0,CS-,animals/cod.jpg,New,foil,MO,FA,CR,2.29,memory_run-03,
392.316,3.0,CS-,animals/clam.jpg,New,foil,,CR,CR,,memory_run-03,
408.466,3.0,CS-,animals/lobsterspiny.jpg,New,foil,DN,CR,CR,1.554,memory_run-03,
432.7,3.0,CS-,animals/lizard.jpg,New,foil,MN,CR,CR,1.1840000000000002,memory_run-03,
489.216,3.0,CS-,animals/deer.jpg,New,foil,DN,CR,CR,1.635,memory_run-03,
537.716,3.0,CS-,animals/vulture.jpg,New,foil,MN,CR,CR,1.68,memory_run-03,
545.783,3.0,CS-,animals/macaw.jpg,New,foil,MO,FA,CR,1.9080000000000001,memory_run-03,
553.866,3.0,CS-,animals/gecko.jpg,New,foil,,CR,CR,,memory_run-03,
