onset,duration,trial_type,stimulus,memory_condition,encode_phase,response,low_confidence_accuracy,high_confidence_accuracy,response_time,phase,source_memory
33.333,3.0,CS+,tools/solderingtorch.jpg,Old,baseline,MO,H,M,1.3419999999999999,memory_run-01,acquisition
63.717,3.0,CS+,tools/monkeywrench.jpg,Old,baseline,MO,H,M,1.383,memory_run-01,extinction
203.31599999999997,3.0,CS+,tools/measuringtape.jpg,Old,baseline,DO,H,H,0.922,memory_run-01,acquisition
235.65,3.0,CS+,tools/workbench.jpg,Old,baseline,DO,H,H,1.0090000000000001,memory_run-01,acquisition
310.416,3.0,CS+,tools/camera.jpg,Old,baseline,DO,H,H,1.0190000000000001,memory_run-01,acquisition
447.76599999999996,3.0,CS+,tools/edger.jpg,Old,baseline,MN,M,M,2.551,memory_run-01,acquisition
509.38199999999995,3.0,CS+,tools/microwave.jpg,Old,baseline,DO,H,H,1.115,memory_run-01,acquisition
563.9159999999998,3.0,CS+,tools/jumpercables.jpg,Old,baseline,MN,M,M,2.415,memory_run-01,acquisition
4.033,3.0,CS+,tools/duffelbag.jpg,Old,baseline,DO,H,H,1.02,memory_run-02,acquisition
103.21700000000001,3.0,CS+,tools/chainsaw.jpg,Old,baseline,DO,H,H,1.676,memory_run-02,acquisition
202.416,3.0,CS+,tools/hammer.jpg,Old,baseline,MN,M,M,1.9180000000000001,memory_run-02,extinction
266.2,3.0,CS+,tools/airpump.jpg,Old,baseline,MO,H,M,1.6540000000000001,memory_run-02,acquisition
327.816,3.0,CS+,tools/toaster.jpg,Old,baseline,MN,M,M,2.016,memory_run-02,acquisition
335.8830000000001,3.0,CS+,tools/blower.jpg,Old,baseline,DN,M,M,1.5619999999999998,memory_run-02,extinction
521.682,3.0,CS+,tools/squeegee.jpg,Old,baseline,MO,H,M,1.939,memory_run-02,acquisition
562.149,3.0,CS+,tools/videogamecontroller.jpg,Old,baseline,DO,H,H,0.778,memory_run-02,acquisition
60.76600000000001,3.0,CS+,tools/carpetblower.jpg,Old,baseline,DO,H,H,1.033,memory_run-03,acquisition
117.48299999999999,3.0,CS+,tools/paintbrush.jpg,Old,baseline,DO,H,H,0.848,memory_run-03,baseline
174.183,3.0,CS+,tools/treadmill.jpg,Old,baseline,DO,H,H,0.895,memory_run-03,acquisition
223.74900000000002,3.0,CS+,tools/bucket.jpg,Old,baseline,DO,H,H,0.857,memory_run-03,acquisition
344.066,3.0,CS+,tools/extensioncord.jpg,Old,baseline,DO,H,H,0.966,memory_run-03,acquisition
360.216,3.0,CS+,tools/campingstove.jpg,Old,baseline,MO,H,M,1.297,memory_run-03,acquisition
497.68199999999996,3.0,CS+,tools/padlock.jpg,Old,baseline,DO,H,H,1.12,memory_run-03,acquisition
538.099,3.0,CS+,tools/screwdriver.jpg,Old,baseline,MO,H,M,1.824,memory_run-03,baseline
115.28299999999999,3.0,CS+,tools/faxmachine.jpg,Old,acquisition,MO,H,M,2.569,memory_run-01,extinction
137.533,3.0,CS+,tools/ladder.jpg,Old,acquisition,DO,H,H,1.104,memory_run-01,acquisition
151.7,3.0,CS+,tools/plow.jpg,Old,acquisition,DO,H,H,1.037,memory_run-01,acquisition
211.4,3.0,CS+,tools/gardenhose.jpg,Old,acquisition,DO,H,H,0.7909999999999999,memory_run-01,acquisition
424.51599999999996,3.0,CS+,tools/ropeandpulley.jpg,Old,acquisition,MN,M,M,1.639,memory_run-01,acquisition
440.68199999999996,3.0,CS+,tools/hairdryer.jpg,Old,acquisition,MN,M,M,2.785,memory_run-01,baseline
479.083,3.0,CS+,tools/scissors.jpg,Old,acquisition,DO,H,H,0.94,memory_run-01,acquisition
524.516,3.0,CS+,tools/rollingpin.jpg,Old,acquisition,DO,H,H,1.011,memory_run-01,acquisition
46.5,3.0,CS+,tools/pliers.jpg,Old,acquisition,MO,H,M,1.469,memory_run-02,extinction
53.583,3.0,CS+,tools/weldinghelmet.jpg,Old,acquisition,DO,H,H,1.215,memory_run-02,acquisition
216.6,3.0,CS+,tools/rake.jpg,Old,acquisition,MN,M,M,1.6780000000000002,memory_run-02,baseline
223.666,3.0,CS+,tools/shoehorn.jpg,Old,acquisition,MO,H,M,2.224,memory_run-02,acquisition
287.45,3.0,CS+,tools/paintroller.jpg,Old,acquisition,MO,H,M,1.98,memory_run-02,acquisition
392.43300000000005,3.0,CS+,tools/stove.jpg,Old,acquisition,MO,H,M,1.255,memory_run-02,acquisition
481.283,3.0,CS+,tools/wheelbarrow.jpg,Old,acquisition,MO,H,M,1.431,memory_run-02,acquisition
513.599,3.0,CS+,tools/chisel.jpg,Old,acquisition,MN,M,M,2.0340000000000003,memory_run-02,acquisition
67.85,3.0,CS+,tools/cheesegrater.jpg,Old,acquisition,MO,H,M,1.274,memory_run-03,acquisition
82.03299999999999,3.0,CS+,tools/plunger.jpg,Old,acquisition,DO,H,H,1.155,memory_run-03,acquisition
160.0,3.0,CS+,tools/transmissionwrench.jpg,Old,acquisition,MO,H,M,1.23,memory_run-03,acquisition
280.433,3.0,CS+,tools/reflexhammer.jpg,Old,acquisition,MO,H,M,1.234,memory_run-03,acquisition
376.366,3.0,CS+,tools/beadingtool.jpg,Old,acquisition,MO,H,M,1.7719999999999998,memory_run-03,extinction
424.916,3.0,CS+,tools/electricbreaker.jpg,Old,acquisition,DO,H,H,1.504,memory_run-03,acquisition
465.366,3.0,CS+,tools/drillbit.jpg,Old,acquisition,DO,H,H,1.214,memory_run-03,acquisition
570.466,3.0,CS+,tools/gong.jpg,Old,acquisition,DO,H,H,0.993,memory_run-03,acquisition
26.267,3.0,CS+,tools/sparkplug.jpg,Old,extinction,MN,M,M,2.346,memory_run-01,acquisition
78.916,3.0,CS+,tools/levelmount.jpg,Old,extinction,MN,M,M,1.598,memory_run-01,acquisition
219.5,3.0,CS+,tools/thermometer.jpg,Old,extinction,DN,M,M,0.9990000000000001,memory_run-01,acquisition
264.999,3.0,CS+,tools/blackboard.jpg,Old,extinction,DO,H,H,1.006,memory_run-01,acquisition
353.849,3.0,CS+,tools/ruler.jpg,Old,extinction,DO,H,H,1.163,memory_run-01,acquisition
432.599,3.0,CS+,tools/broom.jpg,Old,extinction,MN,M,M,1.2229999999999999,memory_run-01,extinction
455.849,3.0,CS+,tools/measuringcups.jpg,Old,extinction,MN,M,M,1.35,memory_run-01,extinction
588.149,3.0,CS+,tools/fan.jpg,Old,extinction,MO,H,M,1.749,memory_run-01,extinction
60.667,3.0,CS+,tools/routerplane.jpg,Old,extinction,DO,H,H,1.035,memory_run-02,acquisition
117.383,3.0,CS+,tools/woodchipper.jpg,Old,extinction,MN,M,M,2.408,memory_run-02,baseline
159.933,3.0,CS+,tools/eraser.jpg,Old,extinction,MO,H,M,1.4080000000000001,memory_run-02,acquisition
167.016,3.0,CS+,tools/wrench.jpg,Old,extinction,DO,H,H,1.54,memory_run-02,extinction
303.58299999999997,3.0,CS+,tools/measuringdevice.jpg,Old,extinction,DN,M,M,1.389,memory_run-02,extinction
400.51599999999996,3.0,CS+,tools/weedeater.jpg,Old,extinction,MO,H,M,1.4969999999999999,memory_run-02,acquisition
457.032,3.0,CS+,tools/spoon.jpg,Old,extinction,MN,M,M,1.395,memory_run-02,baseline
537.883,3.0,CS+,tools/lawnmower.jpg,Old,extinction,DO,H,H,1.5530000000000002,memory_run-02,acquisition
11.116,3.0,CS+,tools/beaker.jpg,Old,extinction,DN,M,M,0.851,memory_run-03,extinction
110.4,3.0,CS+,tools/tubeflaring.jpg,Old,extinction,MN,M,M,1.194,memory_run-03,acquisition
230.833,3.0,CS+,tools/viceclamp.jpg,Old,extinction,MO,H,M,1.103,memory_run-03,extinction
266.26599999999996,3.0,CS+,tools/mallet.jpg,Old,extinction,DO,H,H,1.048,memory_run-03,extinction
327.916,3.0,CS+,tools/sander.jpg,Old,extinction,MN,M,M,1.611,memory_run-03,acquisition
368.282,3.0,CS+,tools/pruner.jpg,Old,extinction,MO,H,M,1.1,memory_run-03,acquisition
449.166,3.0,CS+,tools/benchdogs.jpg,Old,extinction,MO,H,M,2.786,memory_run-03,acquisition
602.849,3.0,CS+,tools/vegetablepeeler.jpg,Old,extinction,MN,M,M,2.355,memory_run-03,extinction
4.033,3.0,CS+,tools/mellonballer.jpg,New,foil,MN,CR,CR,2.441,memory_run-01,
11.117,3.0,CS+,tools/microscope.jpg,New,foil,DN,CR,CR,2.061,memory_run-01,
40.417,3.0,CS+,tools/whistle.jpg,New,foil,MN,CR,CR,1.29,memory_run-01,
108.21600000000001,3.0,CS+,tools/dremel.jpg,New,foil,MN,CR,CR,1.5330000000000001,memory_run-01,
196.233,3.0,CS+,tools/level.jpg,New,foil,MN,CR,CR,1.91,memory_run-01,
227.56599999999997,3.0,CS+,tools/keys.jpg,New,foil,DN,CR,CR,0.988,memory_run-01,
243.75,3.0,CS+,tools/whisk.jpg,New,foil,DN,CR,CR,0.951,memory_run-01,
280.149,3.0,CS+,tools/engine.jpg,New,foil,MN,CR,CR,1.43,memory_run-01,
303.33299999999997,3.0,CS+,tools/burnisher.jpg,New,foil,MN,CR,CR,1.455,memory_run-01,
332.6330000000001,3.0,CS+,tools/bolt.jpg,New,foil,MN,CR,CR,1.052,memory_run-01,
346.783,3.0,CS+,tools/lantern.jpg,New,foil,MN,CR,CR,2.063,memory_run-01,
368.983,3.0,CS+,tools/electricdrill.jpg,New,foil,MN,CR,CR,1.9780000000000002,memory_run-01,
548.766,3.0,CS+,tools/magnet.jpg,New,foil,MN,CR,CR,1.423,memory_run-01,
571.982,3.0,CS+,tools/wateringcan.jpg,New,foil,DN,CR,CR,2.024,memory_run-01,
580.066,3.0,CS+,tools/grapplinghook.jpg,New,foil,DN,CR,CR,1.29,memory_run-01,
603.299,3.0,CS+,tools/caulkinggun.jpg,New,foil,DN,CR,CR,1.734,memory_run-01,
39.417,3.0,CS+,tools/hedgeshears.jpg,New,foil,MN,CR,CR,1.607,memory_run-02,
67.767,3.0,CS+,tools/sawblade.jpg,New,foil,DN,CR,CR,1.124,memory_run-02,
89.01700000000002,3.0,CS+,tools/clamp.jpg,New,foil,MO,FA,CR,1.6569999999999998,memory_run-02,
131.567,3.0,CS+,tools/duster.jpg,New,foil,DN,CR,CR,1.077,memory_run-02,
145.767,3.0,CS+,tools/pick.jpg,New,foil,MN,CR,CR,1.357,memory_run-02,
152.86700000000005,3.0,CS+,tools/pizzacutter.jpg,New,foil,MO,FA,CR,1.295,memory_run-02,
237.85,3.0,CS+,tools/razorblade.jpg,New,foil,DN,CR,CR,0.996,memory_run-02,
280.366,3.0,CS+,tools/snowbrush.jpg,New,foil,MN,CR,CR,1.935,memory_run-02,
368.18300000000005,3.0,CS+,tools/laptop.jpg,New,foil,DN,CR,CR,1.726,memory_run-02,
376.26599999999996,3.0,CS+,tools/battery.jpg,New,foil,MO,FA,CR,2.173,memory_run-02,
384.349,3.0,CS+,tools/flashlight.jpg,New,foil,MN,CR,CR,1.006,memory_run-02,
432.79900000000004,3.0,CS+,tools/telephone.jpg,New,foil,MO,FA,CR,1.345,memory_run-02,
489.349,3.0,CS+,tools/anvil.jpg,New,foil,DN,CR,CR,1.288,memory_run-02,
505.533,3.0,CS+,tools/scratchawl.jpg,New,foil,DN,CR,CR,2.197,memory_run-02,
578.2819999999998,3.0,CS+,tools/stapler.jpg,New,foil,MO,FA,CR,1.101,memory_run-02,
594.482,3.0,CS+,tools/carabiner.jpg,New,foil,MN,CR,CR,1.2819999999999998,memory_run-02,
18.2,3.0,CS+,tools/clippers.jpg,New,foil,MN,CR,CR,1.52,memory_run-03,
32.4,3.0,CS+,tools/vacuumcleaner.jpg,New,foil,DN,CR,CR,1.16,memory_run-03,
39.5,3.0,CS+,tools/watch.jpg,New,foil,MN,CR,CR,1.135,memory_run-03,
103.3,3.0,CS+,tools/crank.jpg,New,foil,MN,CR,CR,1.359,memory_run-03,
145.85,3.0,CS+,tools/cuttingboard.jpg,New,foil,DN,CR,CR,0.833,memory_run-03,
188.35,3.0,CS+,tools/vicegrips.jpg,New,foil,MN,CR,CR,1.8330000000000002,memory_run-03,
237.933,3.0,CS+,tools/electricsewingmachine.jpg,New,foil,MO,FA,CR,1.3980000000000001,memory_run-03,
273.33299999999997,3.0,CS+,tools/tape.jpg,New,foil,MO,FA,CR,1.605,memory_run-03,
352.13199999999995,3.0,CS+,tools/nailgun.jpg,New,foil,DO,FA,FA,1.81,memory_run-03,
384.466,3.0,CS+,tools/hourglass.jpg,New,foil,MN,CR,CR,1.724,memory_run-03,
400.666,3.0,CS+,tools/shovel.jpg,New,foil,MN,CR,CR,1.584,memory_run-03,
416.832,3.0,CS+,tools/stethoscope.jpg,New,foil,MO,FA,CR,1.76,memory_run-03,
505.76599999999996,3.0,CS+,tools/staplegun.jpg,New,foil,MN,CR,CR,1.9069999999999998,memory_run-03,
521.932,3.0,CS+,tools/compass.jpg,New,foil,DN,CR,CR,1.186,memory_run-03,
546.182,3.0,CS+,tools/smartphone.jpg,New,foil,DN,CR,CR,1.073,memory_run-03,
554.266,3.0,CS+,tools/magnifyingglass.jpg,New,foil,MO,FA,CR,1.4569999999999999,memory_run-03,
71.817,3.0,CS-,animals/marmot.jpg,Old,baseline,DO,H,H,1.271,memory_run-01,acquisition
130.45,3.0,CS-,animals/hyena.jpg,Old,baseline,DO,H,H,0.935,memory_run-01,baseline
173.0,3.0,CS-,animals/caterpillarhawkmoth.jpg,Old,baseline,DO,H,H,0.99,memory_run-01,acquisition
272.08299999999997,3.0,CS-,animals/flamingo.jpg,Old,baseline,MO,H,M,1.18,memory_run-01,acquisition
384.116,3.0,CS-,animals/goldfish.jpg,Old,baseline,MO,H,M,1.197,memory_run-01,baseline
416.43300000000005,3.0,CS-,animals/shrimp.jpg,Old,baseline,DO,H,H,1.208,memory_run-01,acquisition
487.166,3.0,CS-,animals/horse.jpg,Old,baseline,MN,M,M,1.885,memory_run-01,acquisition
532.599,3.0,CS-,animals/cricket.jpg,Old,baseline,DO,H,H,1.8230000000000002,memory_run-01,extinction
74.867,3.0,CS-,animals/starfish.jpg,Old,baseline,DN,M,M,0.695,memory_run-02,acquisition
110.3,3.0,CS-,animals/cranebug.jpg,Old,baseline,DO,H,H,1.1059999999999999,memory_run-02,extinction
181.183,3.0,CS-,animals/canary.jpg,Old,baseline,MN,M,M,1.761,memory_run-02,acquisition
209.5,3.0,CS-,animals/cat.jpg,Old,baseline,MO,H,M,1.3030000000000002,memory_run-02,extinction
424.716,3.0,CS-,animals/salmon.jpg,Old,baseline,MN,M,M,1.422,memory_run-02,extinction
440.866,3.0,CS-,animals/perch.jpg,Old,baseline,MN,M,M,1.21,memory_run-02,acquisition
448.949,3.0,CS-,animals/halibut.jpg,Old,baseline,MO,H,M,1.8019999999999998,memory_run-02,acquisition
570.216,3.0,CS-,animals/racoon.jpg,Old,baseline,DO,H,H,1.046,memory_run-02,baseline
4.033,3.0,CS-,animals/zebra.jpg,Old,baseline,MN,M,M,1.401,memory_run-03,baseline
53.7,3.0,CS-,animals/finch.jpg,Old,baseline,DO,H,H,0.748,memory_run-03,acquisition
216.683,3.0,CS-,animals/llama.jpg,Old,baseline,DO,H,H,0.7829999999999999,memory_run-03,acquisition
244.99900000000002,3.0,CS-,animals/aardvark.jpg,Old,baseline,MO,H,M,1.122,memory_run-03,baseline
335.98199999999997,3.0,CS-,animals/reindeer.jpg,Old,baseline,DO,H,H,0.895,memory_run-03,baseline
441.082,3.0,CS-,animals/skunk.jpg,Old,baseline,MO,H,M,1.262,memory_run-03,baseline
578.565,3.0,CS-,animals/elephantafrican.jpg,Old,baseline,MN,M,M,1.571,memory_run-03,extinction
594.749,3.0,CS-,animals/rhino.jpg,Old,baseline,DO,H,H,1.021,memory_run-03,extinction
56.617,3.0,CS-,animals/boar.jpg,Old,acquisition,DO,H,H,1.226,memory_run-01,extinction
86.98299999999998,3.0,CS-,animals/porcupine.jpg,Old,acquisition,MO,H,M,1.3259999999999998,memory_run-01,baseline
188.166,3.0,CS-,animals/pigeon.jpg,Old,acquisition,MN,M,M,1.244,memory_run-01,extinction
257.9,3.0,CS-,animals/caterpillarpeacockmoth.jpg,Old,acquisition,MN,M,M,1.608,memory_run-01,extinction
317.499,3.0,CS-,animals/pelican.jpg,Old,acquisition,MO,H,M,1.4,memory_run-01,baseline
392.18300000000005,3.0,CS-,animals/mole.jpg,Old,acquisition,MO,H,M,1.276,memory_run-01,baseline
462.916,3.0,CS-,animals/giraffe.jpg,Old,acquisition,MO,H,M,2.404,memory_run-01,extinction
470.999,3.0,CS-,animals/gerbil.jpg,Old,acquisition,DO,H,H,1.1540000000000001,memory_run-01,baseline
18.183,3.0,CS-,animals/waterbuffalo.jpg,Old,acquisition,MN,M,M,1.294,memory_run-02,extinction
32.333,3.0,CS-,animals/baboon.jpg,Old,acquisition,DO,H,H,1.091,memory_run-02,acquisition
230.75,3.0,CS-,animals/quail.jpg,Old,acquisition,MN,M,M,1.75,memory_run-02,baseline
259.1,3.0,CS-,animals/herculesbeetle.jpg,Old,acquisition,MN,M,M,1.571,memory_run-02,baseline
319.733,3.0,CS-,animals/leopard.jpg,Old,acquisition,MO,H,M,1.275,memory_run-02,baseline
352.033,3.0,CS-,animals/hummingbird.jpg,Old,acquisition,DN,M,M,1.614,memory_run-02,extinction
465.099,3.0,CS-,animals/snapper.jpg,Old,acquisition,MN,M,M,2.625,memory_run-02,baseline
554.0830000000002,3.0,CS-,animals/cow.jpg,Old,acquisition,MN,M,M,1.383,memory_run-02,baseline
46.6,3.0,CS-,animals/flea.jpg,Old,acquisition,DO,H,H,1.237,memory_run-03,acquisition
96.23299999999999,3.0,CS-,animals/dragonfly.jpg,Old,acquisition,MN,M,M,1.712,memory_run-03,baseline
167.083,3.0,CS-,animals/pike.jpg,Old,acquisition,MO,H,M,1.868,memory_run-03,baseline
209.59900000000002,3.0,CS-,animals/prayingmantis.jpg,Old,acquisition,MO,H,M,2.176,memory_run-03,acquisition
287.51599999999996,3.0,CS-,animals/tiger.jpg,Old,acquisition,MO,H,M,1.43,memory_run-03,extinction
319.816,3.0,CS-,animals/crow.jpg,Old,acquisition,DO,H,H,1.537,memory_run-03,acquisition
513.866,3.0,CS-,animals/angelfish.jpg,Old,acquisition,MN,M,M,1.53,memory_run-03,baseline
530.016,3.0,CS-,animals/ostrich.jpg,Old,acquisition,MO,H,M,1.635,memory_run-03,extinction
48.516999999999996,3.0,CS-,animals/camel.jpg,Old,extinction,MO,H,M,1.59,memory_run-01,baseline
94.066,3.0,CS-,animals/herring.jpg,Old,extinction,DO,H,H,1.3559999999999999,memory_run-01,acquisition
165.9,3.0,CS-,animals/mouse.jpg,Old,extinction,MO,H,M,1.5190000000000001,memory_run-01,acquisition
287.199,3.0,CS-,animals/sheep.jpg,Old,extinction,MN,M,M,1.465,memory_run-01,acquisition
339.716,3.0,CS-,animals/dramaderry.jpg,Old,extinction,DN,M,M,1.411,memory_run-01,acquisition
361.916,3.0,CS-,animals/mahimahi.jpg,Old,extinction,DN,M,M,1.222,memory_run-01,baseline
502.316,3.0,CS-,animals/firebug.jpg,Old,extinction,MO,H,M,1.444,memory_run-01,baseline
595.216,3.0,CS-,animals/mink.jpg,Old,extinction,MN,M,M,1.81,memory_run-01,extinction
25.267,3.0,CS-,animals/brown_bear.jpg,Old,extinction,MO,H,M,1.4469999999999998,memory_run-02,acquisition
124.46700000000001,3.0,CS-,animals/rabbit.jpg,Old,extinction,MN,M,M,2.135,memory_run-02,extinction
188.25,3.0,CS-,animals/chipmunk.jpg,Old,extinction,MN,M,M,1.155,memory_run-02,extinction
273.3,3.0,CS-,animals/anteater.jpg,Old,extinction,MO,H,M,1.128,memory_run-02,extinction
295.51599999999996,3.0,CS-,animals/seal.jpg,Old,extinction,MN,M,M,1.2009999999999998,memory_run-02,acquisition
343.949,3.0,CS-,animals/carp.jpg,Old,extinction,MO,H,M,1.376,memory_run-02,acquisition
497.43300000000005,3.0,CS-,animals/partridge.jpg,Old,extinction,MN,M,M,1.275,memory_run-02,extinction
545.9830000000002,3.0,CS-,animals/turkey.jpg,Old,extinction,MO,H,M,2.5869999999999997,memory_run-02,extinction
74.95,3.0,CS-,animals/ant.jpg,Old,extinction,DO,H,H,1.395,memory_run-03,baseline
89.133,3.0,CS-,animals/palmcockatoo.jpg,Old,extinction,MO,H,M,2.126,memory_run-03,extinction
152.933,3.0,CS-,animals/shark.jpg,Old,extinction,MO,H,M,1.449,memory_run-03,acquisition
259.183,3.0,CS-,animals/assassinbug.jpg,Old,extinction,MO,H,M,1.536,memory_run-03,extinction
295.58299999999997,3.0,CS-,animals/duck.jpg,Old,extinction,MN,M,M,1.632,memory_run-03,baseline
408.749,3.0,CS-,animals/baldeagle.jpg,Old,extinction,DO,H,H,0.991,memory_run-03,acquisition
489.599,3.0,CS-,animals/catfish.jpg,Old,extinction,MN,M,M,1.6680000000000001,memory_run-03,baseline
586.649,3.0,CS-,animals/snail.jpg,Old,extinction,DO,H,H,1.173,memory_run-03,baseline
19.183,3.0,CS-,animals/panda.jpg,New,foil,DN,CR,CR,2.4819999999999998,memory_run-01,
101.15,3.0,CS-,animals/monkey.jpg,New,foil,MO,FA,CR,1.7990000000000002,memory_run-01,
122.366,3.0,CS-,animals/balloonfish.jpg,New,foil,MN,CR,CR,1.943,memory_run-01,
144.616,3.0,CS-,animals/crane.jpg,New,foil,MO,FA,CR,1.444,memory_run-01,
158.8,3.0,CS-,animals/highlandcow.jpg,New,foil,DN,CR,CR,1.46,memory_run-01,
181.083,3.0,CS-,animals/woodlouse.jpg,New,foil,DN,CR,CR,1.002,memory_run-01,
250.81599999999997,3.0,CS-,animals/hermitcrab.jpg,New,foil,DN,CR,CR,0.905,memory_run-01,
295.26599999999996,3.0,CS-,animals/koala.jpg,New,foil,MN,CR,CR,1.6119999999999999,memory_run-01,
324.566,3.0,CS-,animals/bullfrog.jpg,New,foil,MN,CR,CR,2.258,memory_run-01,
376.04900000000004,3.0,CS-,animals/waterdragon.jpg,New,foil,DN,CR,CR,1.396,memory_run-01,
400.26599999999996,3.0,CS-,animals/stickinsect.jpg,New,foil,DN,CR,CR,1.1059999999999999,memory_run-01,
408.349,3.0,CS-,animals/flounder.jpg,New,foil,MN,CR,CR,1.659,memory_run-01,
494.249,3.0,CS-,animals/ladybug.jpg,New,foil,DN,CR,CR,0.996,memory_run-01,
516.4490000000002,3.0,CS-,animals/seaslug.jpg,New,foil,DN,CR,CR,1.148,memory_run-01,
540.682,3.0,CS-,animals/octopus.jpg,New,foil,DN,CR,CR,0.743,memory_run-01,
555.849,3.0,CS-,animals/tortoise.jpg,New,foil,MN,CR,CR,2.096,memory_run-01,
11.117,3.0,CS-,animals/marlin.jpg,New,foil,DN,CR,CR,0.795,memory_run-02,
81.93299999999998,3.0,CS-,animals/dove.jpg,New,foil,DN,CR,CR,1.395,memory_run-02,
96.117,3.0,CS-,animals/slug.jpg,New,foil,DN,CR,CR,1.1909999999999998,memory_run-02,
138.667,3.0,CS-,animals/owl.jpg,New,foil,MO,FA,CR,1.3219999999999998,memory_run-02,
174.1,3.0,CS-,animals/tragopan.jpg,New,foil,DN,CR,CR,0.9079999999999999,memory_run-02,
195.35,3.0,CS-,animals/beardeddragon.jpg,New,foil,DN,CR,CR,1.495,memory_run-02,
244.916,3.0,CS-,animals/malaysianjunglenymph.jpg,New,foil,DN,CR,CR,1.003,memory_run-02,
252.0,3.0,CS-,animals/wasp.jpg,New,foil,DN,CR,CR,0.8759999999999999,memory_run-02,
311.666,3.0,CS-,animals/earthworm.jpg,New,foil,DN,CR,CR,0.9129999999999999,memory_run-02,
360.099,3.0,CS-,animals/armadillo.jpg,New,foil,DN,CR,CR,1.909,memory_run-02,
408.583,3.0,CS-,animals/leafinsect.jpg,New,foil,MN,CR,CR,1.5630000000000002,memory_run-02,
416.649,3.0,CS-,animals/caracal.jpg,New,foil,DN,CR,CR,1.199,memory_run-02,
473.18300000000005,3.0,CS-,animals/crab.jpg,New,foil,MN,CR,CR,1.903,memory_run-02,
529.783,3.0,CS-,animals/rooster.jpg,New,foil,DN,CR,CR,0.9940000000000001,memory_run-02,
586.382,3.0,CS-,animals/orangutan.jpg,New,foil,DN,CR,CR,1.0590000000000002,memory_run-02,
602.549,3.0,CS-,animals/stinkbug.jpg,New,foil,MO,FA,CR,1.712,memory_run-02,
25.3,3.0,CS-,animals/lizard.jpg,New,foil,MN,CR,CR,1.319,memory_run-03,
124.55,3.0,CS-,animals/clam.jpg,New,foil,DN,CR,CR,0.902,memory_run-03,
131.65,3.0,CS-,animals/vulture.jpg,New,foil,MO,FA,CR,1.854,memory_run-03,
138.75,3.0,CS-,animals/clownfish.jpg,New,foil,DN,CR,CR,1.175,memory_run-03,
181.25,3.0,CS-,animals/cod.jpg,New,foil,MO,FA,CR,1.001,memory_run-03,
195.433,3.0,CS-,animals/penguin.jpg,New,foil,MO,FA,CR,2.1719999999999997,memory_run-03,
202.533,3.0,CS-,animals/ibises.jpg,New,foil,DN,CR,CR,2.366,memory_run-03,
252.083,3.0,CS-,animals/lion.jpg,New,foil,MN,CR,CR,1.689,memory_run-03,
303.666,3.0,CS-,animals/gecko.jpg,New,foil,DN,CR,CR,1.046,memory_run-03,
311.733,3.0,CS-,animals/toucan.jpg,New,foil,DN,CR,CR,1.214,memory_run-03,
392.566,3.0,CS-,animals/macaw.jpg,New,foil,MN,CR,CR,1.442,memory_run-03,
433.01599999999996,3.0,CS-,animals/lobsterspiny.jpg,New,foil,DN,CR,CR,1.65,memory_run-03,
457.265,3.0,CS-,animals/deer.jpg,New,foil,MN,CR,CR,1.94,memory_run-03,
473.43199999999996,3.0,CS-,animals/emu.jpg,New,foil,DN,CR,CR,1.281,memory_run-03,
481.51599999999996,3.0,CS-,animals/kangaroo.jpg,New,foil,MO,FA,CR,1.02,memory_run-03,
562.365,3.0,CS-,animals/dockbug2.jpg,New,foil,DN,CR,CR,1.577,memory_run-03,
