onset,duration,trial_type,stimulus,memory_condition,encode_phase,response,low_confidence_accuracy,high_confidence_accuracy,response_time,phase,source_memory
124.3,3.0,CS+,tools/camera.jpg,Old,baseline,DO,H,H,1.111,memory_run-01,baseline
145.733,3.0,CS+,tools/solderingtorch.jpg,Old,baseline,MN,M,M,2.372,memory_run-01,extinction
168.167,3.0,CS+,tools/microwave.jpg,Old,baseline,MN,M,M,1.608,memory_run-01,acquisition
282.283,3.0,CS+,tools/workbench.jpg,Old,baseline,DO,H,H,0.922,memory_run-01,acquisition
384.15,3.0,CS+,tools/edger.jpg,Old,baseline,MN,M,M,2.235,memory_run-01,acquisition
423.9,3.0,CS+,tools/jumpercables.jpg,Old,baseline,MN,M,M,1.7519999999999998,memory_run-01,extinction
539.0,3.0,CS+,tools/monkeywrench.jpg,Old,baseline,DO,H,H,1.541,memory_run-01,baseline
546.15,3.0,CS+,tools/measuringtape.jpg,Old,baseline,MO,H,M,1.9169999999999998,memory_run-01,baseline
32.6,3.0,CS+,tools/videogamecontroller.jpg,Old,baseline,DO,H,H,1.054,memory_run-02,baseline
54.033,3.0,CS+,tools/duffelbag.jpg,Old,baseline,DN,M,M,1.455,memory_run-02,baseline
211.233,3.0,CS+,tools/airpump.jpg,Old,baseline,MN,M,M,2.019,memory_run-02,extinction
225.533,3.0,CS+,tools/toaster.jpg,Old,baseline,MN,M,M,1.922,memory_run-02,acquisition
371.099,3.0,CS+,tools/squeegee.jpg,Old,baseline,MN,M,M,1.16,memory_run-02,acquisition
403.63300000000004,3.0,CS+,tools/blower.jpg,Old,baseline,MO,H,M,2.274,memory_run-02,extinction
533.883,3.0,CS+,tools/chainsaw.jpg,Old,baseline,DO,H,H,0.8690000000000001,memory_run-02,acquisition
541.999,3.0,CS+,tools/hammer.jpg,Old,baseline,MO,H,M,2.198,memory_run-02,extinction
39.766999999999996,3.0,CS+,tools/campingstove.jpg,Old,baseline,MO,H,M,1.599,memory_run-03,baseline
125.56700000000001,3.0,CS+,tools/carpetblower.jpg,Old,baseline,DO,H,H,1.409,memory_run-03,baseline
182.667,3.0,CS+,tools/treadmill.jpg,Old,baseline,MN,M,M,1.839,memory_run-03,baseline
232.61700000000002,3.0,CS+,tools/extensioncord.jpg,Old,baseline,MN,M,M,1.601,memory_run-03,baseline
322.283,3.0,CS+,tools/padlock.jpg,Old,baseline,MO,H,M,1.973,memory_run-03,extinction
403.75,3.0,CS+,tools/bucket.jpg,Old,baseline,DN,M,M,1.982,memory_run-03,extinction
534.067,3.0,CS+,tools/paintbrush.jpg,Old,baseline,MN,M,M,2.05,memory_run-03,extinction
542.183,3.0,CS+,tools/screwdriver.jpg,Old,baseline,DN,M,M,1.117,memory_run-03,acquisition
33.633,3.0,CS+,tools/plow.jpg,Old,acquisition,DO,H,H,2.085,memory_run-01,baseline
57.05,3.0,CS+,tools/faxmachine.jpg,Old,acquisition,DO,H,H,1.298,memory_run-01,acquisition
176.3,3.0,CS+,tools/ropeandpulley.jpg,Old,acquisition,DO,H,H,1.206,memory_run-01,acquisition
214.967,3.0,CS+,tools/hairdryer.jpg,Old,acquisition,MO,H,M,2.6189999999999998,memory_run-01,acquisition
304.716,3.0,CS+,tools/rollingpin.jpg,Old,acquisition,DO,H,H,1.415,memory_run-01,acquisition
415.75,3.0,CS+,tools/gardenhose.jpg,Old,acquisition,DO,H,H,0.871,memory_run-01,acquisition
508.45,3.0,CS+,tools/scissors.jpg,Old,acquisition,MO,H,M,1.8559999999999999,memory_run-01,extinction
515.6,3.0,CS+,tools/ladder.jpg,Old,acquisition,DO,H,H,1.4509999999999998,memory_run-01,acquisition
25.465999999999998,3.0,CS+,tools/shoehorn.jpg,Old,acquisition,DO,H,H,1.347,memory_run-02,baseline
125.48299999999999,3.0,CS+,tools/weldinghelmet.jpg,Old,acquisition,DO,H,H,1.0759999999999998,memory_run-02,baseline
204.083,3.0,CS+,tools/stove.jpg,Old,acquisition,DO,H,H,1.156,memory_run-02,baseline
268.416,3.0,CS+,tools/paintroller.jpg,Old,acquisition,DO,H,H,1.433,memory_run-02,baseline
354.816,3.0,CS+,tools/chisel.jpg,Old,acquisition,MO,H,M,2.1919999999999997,memory_run-02,baseline
387.366,3.0,CS+,tools/rake.jpg,Old,acquisition,DO,H,H,1.1059999999999999,memory_run-02,acquisition
501.333,3.0,CS+,tools/wheelbarrow.jpg,Old,acquisition,DO,H,H,1.091,memory_run-02,acquisition
509.483,3.0,CS+,tools/pliers.jpg,Old,acquisition,MN,M,M,1.601,memory_run-02,baseline
96.96700000000001,3.0,CS+,tools/gong.jpg,Old,acquisition,MN,M,M,1.071,memory_run-03,acquisition
111.26700000000001,3.0,CS+,tools/beadingtool.jpg,Old,acquisition,MO,H,M,1.932,memory_run-03,baseline
154.11700000000005,3.0,CS+,tools/reflexhammer.jpg,Old,acquisition,DO,H,H,0.917,memory_run-03,acquisition
218.317,3.0,CS+,tools/cheesegrater.jpg,Old,acquisition,DO,H,H,0.9590000000000001,memory_run-03,acquisition
346.717,3.0,CS+,tools/plunger.jpg,Old,acquisition,DO,H,H,1.5419999999999998,memory_run-03,baseline
371.15,3.0,CS+,tools/transmissionwrench.jpg,Old,acquisition,MN,M,M,1.8730000000000002,memory_run-03,baseline
501.483,3.0,CS+,tools/drillbit.jpg,Old,acquisition,DO,H,H,1.357,memory_run-03,baseline
509.63300000000004,3.0,CS+,tools/electricbreaker.jpg,Old,acquisition,DO,H,H,0.955,memory_run-03,acquisition
79.467,3.0,CS+,tools/levelmount.jpg,Old,extinction,MN,M,M,2.454,memory_run-01,baseline
131.45,3.0,CS+,tools/blackboard.jpg,Old,extinction,DO,H,H,1.214,memory_run-01,acquisition
152.88299999999995,3.0,CS+,tools/sparkplug.jpg,Old,extinction,MO,H,M,2.015,memory_run-01,acquisition
191.583,3.0,CS+,tools/fan.jpg,Old,extinction,MN,M,M,2.096,memory_run-01,acquisition
399.45,3.0,CS+,tools/thermometer.jpg,Old,extinction,DO,H,H,1.936,memory_run-01,baseline
438.2,3.0,CS+,tools/measuringcups.jpg,Old,extinction,DN,M,M,2.5980000000000003,memory_run-01,extinction
523.7330000000002,3.0,CS+,tools/broom.jpg,Old,extinction,MO,H,M,1.776,memory_run-01,acquisition
531.883,3.0,CS+,tools/ruler.jpg,Old,extinction,DO,H,H,1.5430000000000001,memory_run-01,baseline
96.883,3.0,CS+,tools/eraser.jpg,Old,extinction,DO,H,H,1.811,memory_run-02,extinction
104.03299999999999,3.0,CS+,tools/woodchipper.jpg,Old,extinction,DO,H,H,1.188,memory_run-02,extinction
175.516,3.0,CS+,tools/routerplane.jpg,Old,extinction,MO,H,M,2.8930000000000002,memory_run-02,acquisition
232.683,3.0,CS+,tools/measuringdevice.jpg,Old,extinction,MN,M,M,1.49,memory_run-02,acquisition
411.783,3.0,CS+,tools/weedeater.jpg,Old,extinction,MN,M,M,1.959,memory_run-02,acquisition
436.216,3.0,CS+,tools/lawnmower.jpg,Old,extinction,MO,H,M,1.889,memory_run-02,acquisition
517.616,3.0,CS+,tools/spoon.jpg,Old,extinction,MN,M,M,2.189,memory_run-02,extinction
525.749,3.0,CS+,tools/wrench.jpg,Old,extinction,MO,H,M,1.304,memory_run-02,baseline
54.067,3.0,CS+,tools/benchdogs.jpg,Old,extinction,MO,H,M,2.417,memory_run-03,acquisition
82.667,3.0,CS+,tools/beaker.jpg,Old,extinction,MN,M,M,1.568,memory_run-03,baseline
168.38299999999995,3.0,CS+,tools/tubeflaring.jpg,Old,extinction,DN,M,M,2.3569999999999998,memory_run-03,baseline
246.9,3.0,CS+,tools/sander.jpg,Old,extinction,MN,M,M,1.614,memory_run-03,baseline
338.583,3.0,CS+,tools/mallet.jpg,Old,extinction,MO,H,M,2.333,memory_run-03,acquisition
436.333,3.0,CS+,tools/vegetablepeeler.jpg,Old,extinction,MN,M,M,1.557,memory_run-03,baseline
517.8,3.0,CS+,tools/viceclamp.jpg,Old,extinction,MN,M,M,1.472,memory_run-03,acquisition
525.933,3.0,CS+,tools/pruner.jpg,Old,extinction,MO,H,M,2.485,memory_run-03,acquisition
64.2,3.0,CS+,tools/magnet.jpg,New,foil,DO,FA,FA,1.54,memory_run-01,
100.9,3.0,CS+,tools/whistle.jpg,New,foil,DN,CR,CR,1.535,memory_run-01,
109.03299999999999,3.0,CS+,tools/caulkinggun.jpg,New,foil,DN,CR,CR,2.1319999999999997,memory_run-01,
138.6,3.0,CS+,tools/wateringcan.jpg,New,foil,MN,CR,CR,1.864,memory_run-01,
222.11700000000002,3.0,CS+,tools/microscope.jpg,New,foil,MN,CR,CR,2.372,memory_run-01,
244.55,3.0,CS+,tools/mellonballer.jpg,New,foil,DN,CR,CR,1.811,memory_run-01,
260.85,3.0,CS+,tools/electricdrill.jpg,New,foil,MO,FA,CR,2.2430000000000003,memory_run-01,
289.433,3.0,CS+,tools/whisk.jpg,New,foil,MO,FA,CR,1.7890000000000001,memory_run-01,
328.11699999999996,3.0,CS+,tools/engine.jpg,New,foil,MN,CR,CR,1.619,memory_run-01,
344.4,3.0,CS+,tools/grapplinghook.jpg,New,foil,DO,FA,FA,1.25,memory_run-01,
445.333,3.0,CS+,tools/keys.jpg,New,foil,DN,CR,CR,1.9609999999999999,memory_run-01,
452.467,3.0,CS+,tools/burnisher.jpg,New,foil,MN,CR,CR,2.823,memory_run-01,
585.85,3.0,CS+,tools/lantern.jpg,New,foil,MO,FA,CR,1.685,memory_run-01,
592.9830000000002,3.0,CS+,tools/level.jpg,New,foil,DN,CR,CR,1.268,memory_run-01,
600.1,3.0,CS+,tools/bolt.jpg,New,foil,MN,CR,CR,2.136,memory_run-01,
608.25,3.0,CS+,tools/dremel.jpg,New,foil,MN,CR,CR,2.3,memory_run-01,
11.183,3.0,CS+,tools/carabiner.jpg,New,foil,DN,CR,CR,1.4480000000000002,memory_run-02,
61.183,3.0,CS+,tools/sawblade.jpg,New,foil,DN,CR,CR,1.217,memory_run-02,
68.316,3.0,CS+,tools/flashlight.jpg,New,foil,MN,CR,CR,1.335,memory_run-02,
132.63299999999998,3.0,CS+,tools/clamp.jpg,New,foil,DO,FA,FA,1.169,memory_run-02,
146.933,3.0,CS+,tools/scratchawl.jpg,New,foil,DO,FA,FA,1.722,memory_run-02,
189.783,3.0,CS+,tools/hedgeshears.jpg,New,foil,DO,FA,FA,1.304,memory_run-02,
239.833,3.0,CS+,tools/telephone.jpg,New,foil,MN,CR,CR,1.415,memory_run-02,
275.533,3.0,CS+,tools/pizzacutter.jpg,New,foil,MN,CR,CR,1.683,memory_run-02,
306.066,3.0,CS+,tools/anvil.jpg,New,foil,DN,CR,CR,1.2329999999999999,memory_run-02,
322.316,3.0,CS+,tools/razorblade.jpg,New,foil,MN,CR,CR,1.8330000000000002,memory_run-02,
338.566,3.0,CS+,tools/laptop.jpg,New,foil,DN,CR,CR,1.3619999999999999,memory_run-02,
346.699,3.0,CS+,tools/stapler.jpg,New,foil,MN,CR,CR,1.4140000000000001,memory_run-02,
582.716,3.0,CS+,tools/duster.jpg,New,foil,DN,CR,CR,1.564,memory_run-02,
590.849,3.0,CS+,tools/pick.jpg,New,foil,MN,CR,CR,1.876,memory_run-02,
598.9830000000002,3.0,CS+,tools/battery.jpg,New,foil,DO,FA,FA,1.456,memory_run-02,
607.116,3.0,CS+,tools/snowbrush.jpg,New,foil,DN,CR,CR,1.79,memory_run-02,
4.034,3.0,CS+,tools/vicegrips.jpg,New,foil,MN,CR,CR,1.6469999999999998,memory_run-03,
11.167,3.0,CS+,tools/electricsewingmachine.jpg,New,foil,MN,CR,CR,0.972,memory_run-03,
68.367,3.0,CS+,tools/crank.jpg,New,foil,DN,CR,CR,1.351,memory_run-03,
89.81700000000002,3.0,CS+,tools/magnifyingglass.jpg,New,foil,MN,CR,CR,2.003,memory_run-03,
204.033,3.0,CS+,tools/vacuumcleaner.jpg,New,foil,MO,FA,CR,1.5530000000000002,memory_run-03,
225.467,3.0,CS+,tools/nailgun.jpg,New,foil,MN,CR,CR,1.6880000000000002,memory_run-03,
239.75,3.0,CS+,tools/watch.jpg,New,foil,DN,CR,CR,1.7380000000000002,memory_run-03,
261.16700000000003,3.0,CS+,tools/tape.jpg,New,foil,MN,CR,CR,1.78,memory_run-03,
314.133,3.0,CS+,tools/smartphone.jpg,New,foil,DN,CR,CR,1.2919999999999998,memory_run-03,
330.43300000000005,3.0,CS+,tools/cuttingboard.jpg,New,foil,DN,CR,CR,1.953,memory_run-03,
387.45,3.0,CS+,tools/hourglass.jpg,New,foil,MN,CR,CR,1.4880000000000002,memory_run-03,
444.5,3.0,CS+,tools/staplegun.jpg,New,foil,MN,CR,CR,1.541,memory_run-03,
582.883,3.0,CS+,tools/compass.jpg,New,foil,DN,CR,CR,1.192,memory_run-03,
591.033,3.0,CS+,tools/shovel.jpg,New,foil,MN,CR,CR,1.665,memory_run-03,
599.1669999999998,3.0,CS+,tools/clippers.jpg,New,foil,DN,CR,CR,1.6640000000000001,memory_run-03,
607.283,3.0,CS+,tools/stethoscope.jpg,New,foil,MN,CR,CR,1.386,memory_run-03,
41.766999999999996,3.0,CS-,animals/caterpillarhawkmoth.jpg,Old,baseline,DO,H,H,1.538,memory_run-01,acquisition
93.75,3.0,CS-,animals/hyena.jpg,Old,baseline,DO,H,H,1.439,memory_run-01,extinction
207.833,3.0,CS-,animals/cricket.jpg,Old,baseline,DO,H,H,1.444,memory_run-01,acquisition
252.7,3.0,CS-,animals/goldfish.jpg,Old,baseline,DO,H,H,1.317,memory_run-01,acquisition
312.85,3.0,CS-,animals/marmot.jpg,Old,baseline,DO,H,H,1.733,memory_run-01,extinction
407.6,3.0,CS-,animals/flamingo.jpg,Old,baseline,DO,H,H,0.797,memory_run-01,extinction
492.2,3.0,CS-,animals/shrimp.jpg,Old,baseline,MO,H,M,1.874,memory_run-01,acquisition
500.333,3.0,CS-,animals/horse.jpg,Old,baseline,MN,M,M,1.743,memory_run-01,extinction
75.45,3.0,CS-,animals/halibut.jpg,Old,baseline,MN,M,M,2.105,memory_run-02,baseline
111.18299999999999,3.0,CS-,animals/cranebug.jpg,Old,baseline,DO,H,H,0.8909999999999999,memory_run-02,extinction
168.38299999999995,3.0,CS-,animals/starfish.jpg,Old,baseline,DO,H,H,1.018,memory_run-02,baseline
246.96599999999998,3.0,CS-,animals/canary.jpg,Old,baseline,MO,H,M,1.626,memory_run-02,acquisition
330.449,3.0,CS-,animals/perch.jpg,Old,baseline,MN,M,M,1.482,memory_run-02,acquisition
444.366,3.0,CS-,animals/salmon.jpg,Old,baseline,MO,H,M,1.655,memory_run-02,baseline
485.066,3.0,CS-,animals/racoon.jpg,Old,baseline,MN,M,M,1.631,memory_run-02,acquisition
493.199,3.0,CS-,animals/cat.jpg,Old,baseline,MO,H,M,1.963,memory_run-02,baseline
32.617,3.0,CS-,animals/zebra.jpg,Old,baseline,DO,H,H,0.9420000000000001,memory_run-03,baseline
118.417,3.0,CS-,animals/aardvark.jpg,Old,baseline,MO,H,M,1.5730000000000002,memory_run-03,baseline
161.25,3.0,CS-,animals/skunk.jpg,Old,baseline,DO,H,H,1.151,memory_run-03,extinction
189.8,3.0,CS-,animals/finch.jpg,Old,baseline,DN,M,M,2.11,memory_run-03,extinction
379.3,3.0,CS-,animals/reindeer.jpg,Old,baseline,DO,H,H,1.244,memory_run-03,extinction
411.9,3.0,CS-,animals/llama.jpg,Old,baseline,MN,M,M,1.585,memory_run-03,extinction
485.2,3.0,CS-,animals/rhino.jpg,Old,baseline,DO,H,H,0.883,memory_run-03,extinction
493.35,3.0,CS-,animals/elephantafrican.jpg,Old,baseline,MN,M,M,1.5930000000000002,memory_run-03,baseline
72.333,3.0,CS-,animals/caterpillarpeacockmoth.jpg,Old,acquisition,DO,H,H,1.2770000000000001,memory_run-01,acquisition
116.15,3.0,CS-,animals/mole.jpg,Old,acquisition,MN,M,M,1.933,memory_run-01,extinction
160.017,3.0,CS-,animals/boar.jpg,Old,acquisition,MO,H,M,1.919,memory_run-01,acquisition
237.4,3.0,CS-,animals/gerbil.jpg,Old,acquisition,DO,H,H,1.14,memory_run-01,extinction
368.85,3.0,CS-,animals/porcupine.jpg,Old,acquisition,DO,H,H,1.706,memory_run-01,acquisition
431.05,3.0,CS-,animals/pelican.jpg,Old,acquisition,DO,H,H,1.348,memory_run-01,acquisition
459.6,3.0,CS-,animals/giraffe.jpg,Old,acquisition,DO,H,H,1.001,memory_run-01,acquisition
467.75,3.0,CS-,animals/pigeon.jpg,Old,acquisition,DO,H,H,1.263,memory_run-01,extinction
82.6,3.0,CS-,animals/herculesbeetle.jpg,Old,acquisition,DO,H,H,0.873,memory_run-02,acquisition
118.333,3.0,CS-,animals/quail.jpg,Old,acquisition,DO,H,H,1.4340000000000002,memory_run-02,extinction
161.233,3.0,CS-,animals/snapper.jpg,Old,acquisition,MO,H,M,2.371,memory_run-02,acquisition
254.11599999999999,3.0,CS-,animals/hummingbird.jpg,Old,acquisition,DO,H,H,1.1079999999999999,memory_run-02,extinction
289.7990000000001,3.0,CS-,animals/waterbuffalo.jpg,Old,acquisition,MO,H,M,1.767,memory_run-02,acquisition
428.083,3.0,CS-,animals/baboon.jpg,Old,acquisition,MO,H,M,1.499,memory_run-02,acquisition
452.499,3.0,CS-,animals/leopard.jpg,Old,acquisition,DO,H,H,1.46,memory_run-02,acquisition
460.63300000000004,3.0,CS-,animals/cow.jpg,Old,acquisition,MO,H,M,1.401,memory_run-02,extinction
75.517,3.0,CS-,animals/flea.jpg,Old,acquisition,DO,H,H,1.645,memory_run-03,extinction
132.717,3.0,CS-,animals/dragonfly.jpg,Old,acquisition,DO,H,H,1.2309999999999999,memory_run-03,extinction
211.183,3.0,CS-,animals/angelfish.jpg,Old,acquisition,DO,H,H,1.494,memory_run-03,acquisition
282.58299999999997,3.0,CS-,animals/prayingmantis.jpg,Old,acquisition,DO,H,H,2.002,memory_run-03,acquisition
305.983,3.0,CS-,animals/pike.jpg,Old,acquisition,MN,M,M,2.056,memory_run-03,baseline
354.86699999999996,3.0,CS-,animals/crow.jpg,Old,acquisition,DO,H,H,1.114,memory_run-03,extinction
452.65,3.0,CS-,animals/ostrich.jpg,Old,acquisition,DO,H,H,1.251,memory_run-03,extinction
460.8,3.0,CS-,animals/tiger.jpg,Old,acquisition,DO,H,H,1.6030000000000002,memory_run-03,acquisition
11.2,3.0,CS-,animals/firebug.jpg,Old,extinction,MO,H,M,1.8330000000000002,memory_run-01,baseline
49.917,3.0,CS-,animals/mahimahi.jpg,Old,extinction,DO,H,H,1.178,memory_run-01,acquisition
183.45,3.0,CS-,animals/herring.jpg,Old,extinction,MO,H,M,2.184,memory_run-01,acquisition
275.133,3.0,CS-,animals/dramaderry.jpg,Old,extinction,DO,H,H,0.971,memory_run-01,extinction
336.26599999999996,3.0,CS-,animals/camel.jpg,Old,extinction,DO,H,H,0.892,memory_run-01,extinction
392.3,3.0,CS-,animals/mink.jpg,Old,extinction,DO,H,H,1.594,memory_run-01,extinction
475.9,3.0,CS-,animals/mouse.jpg,Old,extinction,MO,H,M,2.225,memory_run-01,acquisition
484.05,3.0,CS-,animals/sheep.jpg,Old,extinction,DN,M,M,2.437,memory_run-01,baseline
18.333,3.0,CS-,animals/partridge.jpg,Old,extinction,DN,M,M,0.9420000000000001,memory_run-02,extinction
39.75,3.0,CS-,animals/anteater.jpg,Old,extinction,MN,M,M,1.8130000000000002,memory_run-02,acquisition
261.26599999999996,3.0,CS-,animals/carp.jpg,Old,extinction,DO,H,H,1.42,memory_run-02,baseline
282.666,3.0,CS-,animals/turkey.jpg,Old,extinction,MO,H,M,1.9140000000000001,memory_run-02,extinction
362.966,3.0,CS-,animals/chipmunk.jpg,Old,extinction,MN,M,M,1.157,memory_run-02,acquisition
419.93300000000005,3.0,CS-,animals/seal.jpg,Old,extinction,MO,H,M,2.021,memory_run-02,acquisition
468.76599999999996,3.0,CS-,animals/brown_bear.jpg,Old,extinction,MO,H,M,1.7369999999999999,memory_run-02,extinction
476.916,3.0,CS-,animals/rabbit.jpg,Old,extinction,DO,H,H,1.575,memory_run-02,baseline
61.217,3.0,CS-,animals/assassinbug.jpg,Old,extinction,DN,M,M,1.391,memory_run-03,baseline
139.833,3.0,CS-,animals/catfish.jpg,Old,extinction,DO,H,H,1.426,memory_run-03,acquisition
146.967,3.0,CS-,animals/palmcockatoo.jpg,Old,extinction,DN,M,M,1.671,memory_run-03,acquisition
275.433,3.0,CS-,animals/ant.jpg,Old,extinction,DO,H,H,1.341,memory_run-03,acquisition
289.717,3.0,CS-,animals/snail.jpg,Old,extinction,DO,H,H,2.162,memory_run-03,acquisition
363.017,3.0,CS-,animals/baldeagle.jpg,Old,extinction,DO,H,H,1.273,memory_run-03,extinction
468.93300000000005,3.0,CS-,animals/duck.jpg,Old,extinction,MN,M,M,2.151,memory_run-03,baseline
477.05,3.0,CS-,animals/shark.jpg,Old,extinction,DO,H,H,1.446,memory_run-03,acquisition
4.05,3.0,CS-,animals/bullfrog.jpg,New,foil,MO,FA,CR,2.69,memory_run-01,
18.35,3.0,CS-,animals/stickinsect.jpg,New,foil,DN,CR,CR,1.87,memory_run-01,
26.5,3.0,CS-,animals/panda.jpg,New,foil,DN,CR,CR,1.375,memory_run-01,
86.617,3.0,CS-,animals/monkey.jpg,New,foil,DO,FA,FA,1.611,memory_run-01,
199.7,3.0,CS-,animals/seaslug.jpg,New,foil,MN,CR,CR,2.8489999999999998,memory_run-01,
229.267,3.0,CS-,animals/hermitcrab.jpg,New,foil,DN,CR,CR,2.181,memory_run-01,
268.0,3.0,CS-,animals/koala.jpg,New,foil,DO,FA,FA,1.883,memory_run-01,
297.58299999999997,3.0,CS-,animals/woodlouse.jpg,New,foil,MN,CR,CR,1.499,memory_run-01,
319.983,3.0,CS-,animals/octopus.jpg,New,foil,MO,FA,CR,1.886,memory_run-01,
352.55,3.0,CS-,animals/flounder.jpg,New,foil,DN,CR,CR,1.585,memory_run-01,
360.7,3.0,CS-,animals/highlandcow.jpg,New,foil,DN,CR,CR,1.89,memory_run-01,
377.0,3.0,CS-,animals/balloonfish.jpg,New,foil,DO,FA,FA,0.976,memory_run-01,
554.283,3.0,CS-,animals/crane.jpg,New,foil,MN,CR,CR,1.865,memory_run-01,
562.4159999999998,3.0,CS-,animals/tortoise.jpg,New,foil,MN,CR,CR,1.754,memory_run-01,
569.55,3.0,CS-,animals/ladybug.jpg,New,foil,DN,CR,CR,1.625,memory_run-01,
577.7,3.0,CS-,animals/waterdragon.jpg,New,foil,DN,CR,CR,1.8419999999999999,memory_run-01,
4.05,3.0,CS-,animals/earthworm.jpg,New,foil,DN,CR,CR,1.4169999999999998,memory_run-02,
46.883,3.0,CS-,animals/dove.jpg,New,foil,MN,CR,CR,1.49,memory_run-02,
89.73299999999998,3.0,CS-,animals/slug.jpg,New,foil,MN,CR,CR,1.845,memory_run-02,
139.783,3.0,CS-,animals/tragopan.jpg,New,foil,DN,CR,CR,1.222,memory_run-02,
154.083,3.0,CS-,animals/crab.jpg,New,foil,MN,CR,CR,1.659,memory_run-02,
182.63299999999998,3.0,CS-,animals/armadillo.jpg,New,foil,MN,CR,CR,1.77,memory_run-02,
196.933,3.0,CS-,animals/orangutan.jpg,New,foil,MN,CR,CR,1.806,memory_run-02,
218.38299999999998,3.0,CS-,animals/rooster.jpg,New,foil,MN,CR,CR,1.5419999999999998,memory_run-02,
297.933,3.0,CS-,animals/leafinsect.jpg,New,foil,DN,CR,CR,1.3519999999999999,memory_run-02,
314.199,3.0,CS-,animals/caracal.jpg,New,foil,DN,CR,CR,1.263,memory_run-02,
379.233,3.0,CS-,animals/beardeddragon.jpg,New,foil,DN,CR,CR,1.218,memory_run-02,
395.51599999999996,3.0,CS-,animals/stinkbug.jpg,New,foil,DN,CR,CR,1.351,memory_run-02,
550.133,3.0,CS-,animals/owl.jpg,New,foil,DO,FA,FA,1.7309999999999999,memory_run-02,
558.266,3.0,CS-,animals/malaysianjunglenymph.jpg,New,foil,MN,CR,CR,1.7590000000000001,memory_run-02,
566.4159999999998,3.0,CS-,animals/wasp.jpg,New,foil,MO,FA,CR,1.868,memory_run-02,
574.566,3.0,CS-,animals/marlin.jpg,New,foil,MN,CR,CR,2.085,memory_run-02,
18.317,3.0,CS-,animals/deer.jpg,New,foil,MN,CR,CR,1.405,memory_run-03,
25.467,3.0,CS-,animals/gecko.jpg,New,foil,DN,CR,CR,1.2790000000000001,memory_run-03,
46.917,3.0,CS-,animals/lobsterspiny.jpg,New,foil,DN,CR,CR,1.993,memory_run-03,
104.117,3.0,CS-,animals/penguin.jpg,New,foil,MN,CR,CR,1.4609999999999999,memory_run-03,
175.533,3.0,CS-,animals/vulture.jpg,New,foil,DN,CR,CR,1.3090000000000002,memory_run-03,
196.917,3.0,CS-,animals/emu.jpg,New,foil,MN,CR,CR,1.432,memory_run-03,
254.033,3.0,CS-,animals/clam.jpg,New,foil,DN,CR,CR,1.194,memory_run-03,
268.283,3.0,CS-,animals/lizard.jpg,New,foil,MN,CR,CR,1.4040000000000001,memory_run-03,
297.85,3.0,CS-,animals/kangaroo.jpg,New,foil,DN,CR,CR,1.885,memory_run-03,
395.6,3.0,CS-,animals/macaw.jpg,New,foil,MN,CR,CR,1.181,memory_run-03,
420.05,3.0,CS-,animals/lion.jpg,New,foil,MO,FA,CR,2.636,memory_run-03,
428.2,3.0,CS-,animals/ibises.jpg,New,foil,DN,CR,CR,2.13,memory_run-03,
550.317,3.0,CS-,animals/toucan.jpg,New,foil,DN,CR,CR,1.265,memory_run-03,
558.45,3.0,CS-,animals/cod.jpg,New,foil,DN,CR,CR,1.591,memory_run-03,
566.5830000000002,3.0,CS-,animals/dockbug2.jpg,New,foil,DN,CR,CR,1.205,memory_run-03,
574.75,3.0,CS-,animals/clownfish.jpg,New,foil,DN,CR,CR,1.1340000000000001,memory_run-03,
