onset,duration,trial_type,stimulus,memory_condition,encode_phase,response,low_confidence_accuracy,high_confidence_accuracy,response_time,phase,source_memory
142.45,3.0,CS+,animals/dragonfly.jpg,Old,baseline,DO,H,H,0.946,memory_run-01,acquisition
150.517,3.0,CS+,animals/prayingmantis.jpg,Old,baseline,MO,H,M,1.8130000000000002,memory_run-01,baseline
227.4,3.0,CS+,animals/angelfish.jpg,Old,baseline,DO,H,H,1.125,memory_run-01,baseline
256.784,3.0,CS+,animals/tiger.jpg,Old,baseline,DO,H,H,0.8390000000000001,memory_run-01,extinction
435.7,3.0,CS+,animals/ostrich.jpg,Old,baseline,DO,H,H,0.708,memory_run-01,acquisition
465.0,3.0,CS+,animals/flea.jpg,Old,baseline,DO,H,H,0.961,memory_run-01,baseline
489.217,3.0,CS+,animals/crow.jpg,Old,baseline,MO,H,M,1.466,memory_run-01,baseline
580.151,3.0,CS+,animals/pike.jpg,Old,baseline,DO,H,H,1.661,memory_run-01,baseline
18.183,3.0,CS+,animals/pelican.jpg,Old,baseline,DO,H,H,0.982,memory_run-02,baseline
131.45,3.0,CS+,animals/giraffe.jpg,Old,baseline,MN,M,M,1.9169999999999998,memory_run-02,baseline
166.86599999999999,3.0,CS+,animals/pigeon.jpg,Old,baseline,DO,H,H,1.062,memory_run-02,baseline
230.65,3.0,CS+,animals/caterpillarpeacockmoth.jpg,Old,baseline,DO,H,H,1.1340000000000001,memory_run-02,acquisition
303.366,3.0,CS+,animals/gerbil.jpg,Old,baseline,MO,H,M,1.6909999999999998,memory_run-02,acquisition
408.333,3.0,CS+,animals/mole.jpg,Old,baseline,MO,H,M,2.032,memory_run-02,baseline
481.05,3.0,CS+,animals/porcupine.jpg,Old,baseline,DO,H,H,0.909,memory_run-02,baseline
586.0830000000002,3.0,CS+,animals/boar.jpg,Old,baseline,MN,M,M,2.037,memory_run-02,acquisition
4.0169999999999995,3.0,CS+,animals/baboon.jpg,Old,baseline,MO,H,M,1.368,memory_run-03,baseline
67.7,3.0,CS+,animals/cow.jpg,Old,baseline,DO,H,H,1.273,memory_run-03,baseline
202.334,3.0,CS+,animals/herculesbeetle.jpg,Old,baseline,DO,H,H,1.067,memory_run-03,acquisition
280.2,3.0,CS+,animals/quail.jpg,Old,baseline,MO,H,M,1.665,memory_run-03,baseline
400.36699999999996,3.0,CS+,animals/leopard.jpg,Old,baseline,MN,M,M,1.6269999999999998,memory_run-03,baseline
416.517,3.0,CS+,animals/waterbuffalo.jpg,Old,baseline,MO,H,M,1.318,memory_run-03,acquisition
448.784,3.0,CS+,animals/hummingbird.jpg,Old,baseline,MN,M,M,2.278,memory_run-03,baseline
569.934,3.0,CS+,animals/snapper.jpg,Old,baseline,MO,H,M,1.493,memory_run-03,extinction
26.283,3.0,CS+,animals/shark.jpg,Old,acquisition,DO,H,H,2.0780000000000003,memory_run-01,baseline
134.36700000000002,3.0,CS+,animals/catfish.jpg,Old,acquisition,MO,H,M,1.9369999999999998,memory_run-01,acquisition
173.734,3.0,CS+,animals/assassinbug.jpg,Old,acquisition,MO,H,M,1.95,memory_run-01,baseline
249.68400000000003,3.0,CS+,animals/palmcockatoo.jpg,Old,acquisition,MO,H,M,1.271,memory_run-01,acquisition
329.684,3.0,CS+,animals/duck.jpg,Old,acquisition,MO,H,M,1.329,memory_run-01,acquisition
336.75,3.0,CS+,animals/baldeagle.jpg,Old,acquisition,MO,H,M,1.239,memory_run-01,acquisition
473.06699999999995,3.0,CS+,animals/snail.jpg,Old,acquisition,DO,H,H,1.028,memory_run-01,acquisition
541.7669999999998,3.0,CS+,animals/ant.jpg,Old,acquisition,MO,H,M,2.245,memory_run-01,baseline
67.733,3.0,CS+,animals/camel.jpg,Old,acquisition,DO,H,H,0.99,memory_run-02,acquisition
110.21600000000001,3.0,CS+,animals/herring.jpg,Old,acquisition,MO,H,M,1.6380000000000001,memory_run-02,baseline
181.05,3.0,CS+,animals/mouse.jpg,Old,acquisition,DO,H,H,1.3559999999999999,memory_run-02,acquisition
237.71599999999998,3.0,CS+,animals/dramaderry.jpg,Old,acquisition,MO,H,M,1.8219999999999998,memory_run-02,acquisition
319.51599999999996,3.0,CS+,animals/mink.jpg,Old,acquisition,DO,H,H,1.479,memory_run-02,acquisition
400.267,3.0,CS+,animals/sheep.jpg,Old,acquisition,MN,M,M,1.9780000000000002,memory_run-02,acquisition
529.5169999999998,3.0,CS+,animals/firebug.jpg,Old,acquisition,DO,H,H,2.0069999999999997,memory_run-02,baseline
545.683,3.0,CS+,animals/mahimahi.jpg,Old,acquisition,MO,H,M,2.5069999999999997,memory_run-02,baseline
96.03399999999999,3.0,CS+,animals/partridge.jpg,Old,acquisition,MO,H,M,1.3659999999999999,memory_run-03,acquisition
138.584,3.0,CS+,animals/chipmunk.jpg,Old,acquisition,MO,H,M,1.3419999999999999,memory_run-03,baseline
152.784,3.0,CS+,animals/rabbit.jpg,Old,acquisition,DO,H,H,1.0959999999999999,memory_run-03,acquisition
258.967,3.0,CS+,animals/carp.jpg,Old,acquisition,MO,H,M,1.4580000000000002,memory_run-03,baseline
303.434,3.0,CS+,animals/turkey.jpg,Old,acquisition,MO,H,M,1.4380000000000002,memory_run-03,baseline
327.6670000000001,3.0,CS+,animals/brown_bear.jpg,Old,acquisition,MO,H,M,1.4169999999999998,memory_run-03,acquisition
553.7669999999998,3.0,CS+,animals/seal.jpg,Old,acquisition,MO,H,M,1.62,memory_run-03,acquisition
561.851,3.0,CS+,animals/anteater.jpg,Old,acquisition,DO,H,H,1.308,memory_run-03,acquisition
34.367,3.0,CS+,animals/finch.jpg,Old,extinction,MO,H,M,1.475,memory_run-01,baseline
57.617,3.0,CS+,animals/rhino.jpg,Old,extinction,DO,H,H,1.112,memory_run-01,acquisition
213.233,3.0,CS+,animals/llama.jpg,Old,extinction,DO,H,H,1.143,memory_run-01,acquisition
299.334,3.0,CS+,animals/skunk.jpg,Old,extinction,MO,H,M,1.122,memory_run-01,extinction
351.917,3.0,CS+,animals/reindeer.jpg,Old,extinction,MO,H,M,1.226,memory_run-01,baseline
360.0,3.0,CS+,animals/zebra.jpg,Old,extinction,DO,H,H,0.9279999999999999,memory_run-01,acquisition
412.5,3.0,CS+,animals/aardvark.jpg,Old,extinction,DO,H,H,1.798,memory_run-01,baseline
481.134,3.0,CS+,animals/elephantafrican.jpg,Old,extinction,DO,H,H,0.6729999999999999,memory_run-01,acquisition
74.816,3.0,CS+,animals/caterpillarhawkmoth.jpg,Old,extinction,DO,H,H,0.9490000000000001,memory_run-02,baseline
138.516,3.0,CS+,animals/goldfish.jpg,Old,extinction,MO,H,M,1.5190000000000001,memory_run-02,baseline
145.6,3.0,CS+,animals/cricket.jpg,Old,extinction,DO,H,H,1.1340000000000001,memory_run-02,acquisition
280.133,3.0,CS+,animals/hyena.jpg,Old,extinction,MN,M,M,1.3869999999999998,memory_run-02,baseline
287.216,3.0,CS+,animals/flamingo.jpg,Old,extinction,DO,H,H,1.2409999999999999,memory_run-02,acquisition
343.733,3.0,CS+,animals/marmot.jpg,Old,extinction,DN,M,M,1.367,memory_run-02,baseline
489.13300000000004,3.0,CS+,animals/horse.jpg,Old,extinction,MO,H,M,1.475,memory_run-02,acquisition
578.0,3.0,CS+,animals/shrimp.jpg,Old,extinction,MO,H,M,1.272,memory_run-02,acquisition
11.083,3.0,CS+,animals/cat.jpg,Old,extinction,MN,M,M,1.926,memory_run-03,extinction
110.184,3.0,CS+,animals/racoon.jpg,Old,extinction,MN,M,M,1.423,memory_run-03,acquisition
145.684,3.0,CS+,animals/starfish.jpg,Old,extinction,DO,H,H,1.087,memory_run-03,baseline
188.18400000000003,3.0,CS+,animals/canary.jpg,Old,extinction,MO,H,M,1.4809999999999999,memory_run-03,acquisition
343.834,3.0,CS+,animals/cranebug.jpg,Old,extinction,MO,H,M,1.5730000000000002,memory_run-03,acquisition
424.584,3.0,CS+,animals/perch.jpg,Old,extinction,MN,M,M,1.864,memory_run-03,extinction
489.167,3.0,CS+,animals/salmon.jpg,Old,extinction,MO,H,M,1.675,memory_run-03,baseline
586.101,3.0,CS+,animals/halibut.jpg,Old,extinction,MO,H,M,2.12,memory_run-03,baseline
42.467,3.0,CS+,animals/monkey.jpg,New,foil,MN,CR,CR,1.8459999999999999,memory_run-01,
88.93299999999998,3.0,CS+,animals/crane.jpg,New,foil,MO,FA,CR,1.7730000000000001,memory_run-01,
96.01700000000001,3.0,CS+,animals/koala.jpg,New,foil,DN,CR,CR,2.479,memory_run-01,
103.083,3.0,CS+,animals/stickinsect.jpg,New,foil,MO,FA,CR,1.944,memory_run-01,
188.93400000000003,3.0,CS+,animals/octopus.jpg,New,foil,MO,FA,CR,1.922,memory_run-01,
205.13400000000001,3.0,CS+,animals/seaslug.jpg,New,foil,MO,FA,CR,1.726,memory_run-01,
242.584,3.0,CS+,animals/ladybug.jpg,New,foil,MO,FA,CR,1.19,memory_run-01,
292.2340000000001,3.0,CS+,animals/panda.jpg,New,foil,DO,FA,FA,0.992,memory_run-01,
383.217,3.0,CS+,animals/balloonfish.jpg,New,foil,DO,FA,FA,1.922,memory_run-01,
390.3,3.0,CS+,animals/hermitcrab.jpg,New,foil,MN,CR,CR,1.663,memory_run-01,
397.36699999999996,3.0,CS+,animals/bullfrog.jpg,New,foil,DO,FA,FA,1.745,memory_run-01,
405.434,3.0,CS+,animals/flounder.jpg,New,foil,MO,FA,CR,1.383,memory_run-01,
457.934,3.0,CS+,animals/woodlouse.jpg,New,foil,MO,FA,CR,1.649,memory_run-01,
497.3,3.0,CS+,animals/highlandcow.jpg,New,foil,MO,FA,CR,1.739,memory_run-01,
511.467,3.0,CS+,animals/waterdragon.jpg,New,foil,MO,FA,CR,1.518,memory_run-01,
572.067,3.0,CS+,animals/tortoise.jpg,New,foil,DO,FA,FA,1.002,memory_run-01,
39.416,3.0,CS+,animals/earthworm.jpg,New,foil,DO,FA,FA,1.1320000000000001,memory_run-02,
46.5,3.0,CS+,animals/tragopan.jpg,New,foil,MN,CR,CR,1.6380000000000001,memory_run-02,
60.666000000000004,3.0,CS+,animals/marlin.jpg,New,foil,DO,FA,FA,1.3780000000000001,memory_run-02,
88.96600000000002,3.0,CS+,animals/slug.jpg,New,foil,MN,CR,CR,1.876,memory_run-02,
152.7,3.0,CS+,animals/owl.jpg,New,foil,DO,FA,FA,1.324,memory_run-02,
159.8,3.0,CS+,animals/caracal.jpg,New,foil,MN,CR,CR,1.517,memory_run-02,
202.31599999999997,3.0,CS+,animals/dove.jpg,New,foil,MN,CR,CR,1.838,memory_run-02,
216.46599999999998,3.0,CS+,animals/orangutan.jpg,New,foil,DN,CR,CR,1.635,memory_run-02,
359.88300000000015,3.0,CS+,animals/rooster.jpg,New,foil,DO,FA,FA,1.284,memory_run-02,
376.033,3.0,CS+,animals/stinkbug.jpg,New,foil,DO,FA,FA,1.3019999999999998,memory_run-02,
384.116,3.0,CS+,animals/wasp.jpg,New,foil,MO,FA,CR,1.765,memory_run-02,
432.6,3.0,CS+,animals/malaysianjunglenymph.jpg,New,foil,MN,CR,CR,2.077,memory_run-02,
521.45,3.0,CS+,animals/armadillo.jpg,New,foil,MN,CR,CR,1.849,memory_run-02,
537.6,3.0,CS+,animals/beardeddragon.jpg,New,foil,DN,CR,CR,1.804,memory_run-02,
561.85,3.0,CS+,animals/crab.jpg,New,foil,MO,FA,CR,1.974,memory_run-02,
569.933,3.0,CS+,animals/leafinsect.jpg,New,foil,DN,CR,CR,2.263,memory_run-02,
18.183,3.0,CS+,animals/clam.jpg,New,foil,MN,CR,CR,1.5919999999999999,memory_run-03,
25.267,3.0,CS+,animals/emu.jpg,New,foil,MN,CR,CR,1.53,memory_run-03,
32.333,3.0,CS+,animals/toucan.jpg,New,foil,DN,CR,CR,1.006,memory_run-03,
131.484,3.0,CS+,animals/vulture.jpg,New,foil,MN,CR,CR,1.089,memory_run-03,
166.93400000000003,3.0,CS+,animals/gecko.jpg,New,foil,MO,FA,CR,1.268,memory_run-03,
216.5,3.0,CS+,animals/cod.jpg,New,foil,MO,FA,CR,1.36,memory_run-03,
230.65,3.0,CS+,animals/kangaroo.jpg,New,foil,DN,CR,CR,1.12,memory_run-03,
251.88400000000001,3.0,CS+,animals/deer.jpg,New,foil,MN,CR,CR,1.554,memory_run-03,
319.6,3.0,CS+,animals/macaw.jpg,New,foil,DN,CR,CR,1.131,memory_run-03,
335.75,3.0,CS+,animals/penguin.jpg,New,foil,MN,CR,CR,1.3219999999999998,memory_run-03,
351.917,3.0,CS+,animals/lizard.jpg,New,foil,MN,CR,CR,1.6640000000000001,memory_run-03,
359.98400000000015,3.0,CS+,animals/ibises.jpg,New,foil,MN,CR,CR,1.507,memory_run-03,
456.851,3.0,CS+,animals/clownfish.jpg,New,foil,MN,CR,CR,1.89,memory_run-03,
481.101,3.0,CS+,animals/lobsterspiny.jpg,New,foil,MO,FA,CR,1.462,memory_run-03,
497.251,3.0,CS+,animals/dockbug2.jpg,New,foil,MO,FA,CR,1.7209999999999999,memory_run-03,
537.617,3.0,CS+,animals/lion.jpg,New,foil,MO,FA,CR,1.99,memory_run-03,
11.117,3.0,CS-,tools/drillbit.jpg,Old,baseline,MO,H,M,1.624,memory_run-01,extinction
80.867,3.0,CS-,tools/beadingtool.jpg,Old,baseline,DO,H,H,1.1640000000000001,memory_run-01,acquisition
235.484,3.0,CS-,tools/reflexhammer.jpg,Old,baseline,DO,H,H,1.6340000000000001,memory_run-01,acquisition
270.98400000000004,3.0,CS-,tools/transmissionwrench.jpg,Old,baseline,MO,H,M,1.145,memory_run-01,extinction
368.06699999999995,3.0,CS-,tools/gong.jpg,Old,baseline,MO,H,M,1.3419999999999999,memory_run-01,acquisition
420.56699999999995,3.0,CS-,tools/plunger.jpg,Old,baseline,DO,H,H,0.963,memory_run-01,acquisition
504.384,3.0,CS-,tools/electricbreaker.jpg,Old,baseline,MN,M,M,1.2930000000000001,memory_run-01,baseline
519.5509999999998,3.0,CS-,tools/cheesegrater.jpg,Old,baseline,DO,H,H,0.912,memory_run-01,acquisition
11.099,3.0,CS-,tools/ropeandpulley.jpg,Old,baseline,DO,H,H,1.341,memory_run-02,acquisition
103.15,3.0,CS-,tools/faxmachine.jpg,Old,baseline,MO,H,M,1.7280000000000002,memory_run-02,extinction
195.25,3.0,CS-,tools/hairdryer.jpg,Old,baseline,MO,H,M,2.044,memory_run-02,acquisition
209.4,3.0,CS-,tools/gardenhose.jpg,Old,baseline,DO,H,H,0.995,memory_run-02,acquisition
311.45,3.0,CS-,tools/scissors.jpg,Old,baseline,MN,M,M,1.9780000000000002,memory_run-02,baseline
351.8,3.0,CS-,tools/ladder.jpg,Old,baseline,MO,H,M,1.44,memory_run-02,extinction
464.9,3.0,CS-,tools/rollingpin.jpg,Old,baseline,DO,H,H,1.7209999999999999,memory_run-02,extinction
497.217,3.0,CS-,tools/plow.jpg,Old,baseline,MN,M,M,1.985,memory_run-02,acquisition
46.483000000000004,3.0,CS-,tools/weldinghelmet.jpg,Old,baseline,DO,H,H,1.278,memory_run-03,baseline
117.28399999999999,3.0,CS-,tools/chisel.jpg,Old,baseline,MO,H,M,1.317,memory_run-03,baseline
174.03400000000005,3.0,CS-,tools/stove.jpg,Old,baseline,MO,H,M,1.828,memory_run-03,acquisition
181.1,3.0,CS-,tools/wheelbarrow.jpg,Old,baseline,DO,H,H,1.151,memory_run-03,baseline
311.517,3.0,CS-,tools/pliers.jpg,Old,baseline,MO,H,M,2.1719999999999997,memory_run-03,baseline
376.15,3.0,CS-,tools/shoehorn.jpg,Old,baseline,MO,H,M,1.5019999999999998,memory_run-03,acquisition
578.0169999999998,3.0,CS-,tools/rake.jpg,Old,baseline,DO,H,H,1.507,memory_run-03,baseline
594.1669999999998,3.0,CS-,tools/paintroller.jpg,Old,baseline,MO,H,M,1.351,memory_run-03,acquisition
65.683,3.0,CS-,tools/benchdogs.jpg,Old,acquisition,DN,M,M,1.605,memory_run-01,acquisition
111.15,3.0,CS-,tools/mallet.jpg,Old,acquisition,MO,H,M,1.745,memory_run-01,baseline
197.03400000000002,3.0,CS-,tools/tubeflaring.jpg,Old,acquisition,MN,M,M,1.5730000000000002,memory_run-01,acquisition
220.317,3.0,CS-,tools/viceclamp.jpg,Old,acquisition,MN,M,M,1.357,memory_run-01,extinction
376.15,3.0,CS-,tools/sander.jpg,Old,acquisition,MN,M,M,1.781,memory_run-01,extinction
443.784,3.0,CS-,tools/vegetablepeeler.jpg,Old,acquisition,MN,M,M,1.8119999999999998,memory_run-01,extinction
534.701,3.0,CS-,tools/pruner.jpg,Old,acquisition,MN,M,M,1.4609999999999999,memory_run-01,baseline
549.851,3.0,CS-,tools/beaker.jpg,Old,acquisition,MN,M,M,1.4480000000000002,memory_run-01,baseline
25.249000000000002,3.0,CS-,tools/fan.jpg,Old,acquisition,DO,H,H,0.7090000000000001,memory_run-02,extinction
124.366,3.0,CS-,tools/levelmount.jpg,Old,acquisition,MN,M,M,2.106,memory_run-02,baseline
223.55,3.0,CS-,tools/measuringcups.jpg,Old,acquisition,MO,H,M,1.575,memory_run-02,extinction
244.8,3.0,CS-,tools/blackboard.jpg,Old,acquisition,MN,M,M,1.631,memory_run-02,acquisition
295.3,3.0,CS-,tools/sparkplug.jpg,Old,acquisition,MN,M,M,1.662,memory_run-02,extinction
416.416,3.0,CS-,tools/broom.jpg,Old,acquisition,MN,M,M,1.7919999999999998,memory_run-02,baseline
448.767,3.0,CS-,tools/thermometer.jpg,Old,acquisition,MO,H,M,1.615,memory_run-02,baseline
513.383,3.0,CS-,tools/ruler.jpg,Old,acquisition,DN,M,M,1.7819999999999998,memory_run-02,extinction
60.63399999999999,3.0,CS-,tools/spoon.jpg,Old,acquisition,DO,H,H,1.25,memory_run-03,baseline
81.884,3.0,CS-,tools/routerplane.jpg,Old,acquisition,MN,M,M,1.598,memory_run-03,acquisition
159.85,3.0,CS-,tools/lawnmower.jpg,Old,acquisition,DO,H,H,1.275,memory_run-03,baseline
195.25,3.0,CS-,tools/eraser.jpg,Old,acquisition,MN,M,M,1.693,memory_run-03,extinction
295.35,3.0,CS-,tools/measuringdevice.jpg,Old,acquisition,MO,H,M,1.8219999999999998,memory_run-03,acquisition
432.65,3.0,CS-,tools/woodchipper.jpg,Old,acquisition,MO,H,M,1.595,memory_run-03,acquisition
464.934,3.0,CS-,tools/weedeater.jpg,Old,acquisition,MO,H,M,1.321,memory_run-03,baseline
602.234,3.0,CS-,tools/wrench.jpg,Old,acquisition,MO,H,M,1.347,memory_run-03,baseline
4.033,3.0,CS-,tools/carpetblower.jpg,Old,extinction,DO,H,H,2.104,memory_run-01,baseline
18.217,3.0,CS-,tools/treadmill.jpg,Old,extinction,DO,H,H,1.25,memory_run-01,acquisition
180.834,3.0,CS-,tools/paintbrush.jpg,Old,extinction,MO,H,M,1.401,memory_run-01,baseline
278.05,3.0,CS-,tools/campingstove.jpg,Old,extinction,MN,M,M,1.6980000000000002,memory_run-01,extinction
306.434,3.0,CS-,tools/bucket.jpg,Old,extinction,MO,H,M,1.364,memory_run-01,extinction
321.584,3.0,CS-,tools/padlock.jpg,Old,extinction,DN,M,M,1.2009999999999998,memory_run-01,extinction
588.217,3.0,CS-,tools/extensioncord.jpg,Old,extinction,MO,H,M,2.084,memory_run-01,extinction
603.367,3.0,CS-,tools/screwdriver.jpg,Old,extinction,DO,H,H,1.091,memory_run-01,extinction
4.033,3.0,CS-,tools/solderingtorch.jpg,Old,extinction,DO,H,H,1.379,memory_run-02,extinction
96.05,3.0,CS-,tools/measuringtape.jpg,Old,extinction,MO,H,M,1.205,memory_run-02,baseline
173.95,3.0,CS-,tools/edger.jpg,Old,extinction,MN,M,M,2.069,memory_run-02,acquisition
251.85,3.0,CS-,tools/monkeywrench.jpg,Old,extinction,MO,H,M,1.3659999999999999,memory_run-02,baseline
392.18300000000005,3.0,CS-,tools/workbench.jpg,Old,extinction,MN,M,M,1.935,memory_run-02,extinction
440.68300000000005,3.0,CS-,tools/microwave.jpg,Old,extinction,MN,M,M,1.68,memory_run-02,extinction
472.983,3.0,CS-,tools/jumpercables.jpg,Old,extinction,DO,H,H,1.795,memory_run-02,extinction
594.1669999999998,3.0,CS-,tools/camera.jpg,Old,extinction,MO,H,M,2.355,memory_run-02,extinction
39.417,3.0,CS-,tools/airpump.jpg,Old,extinction,MN,M,M,1.849,memory_run-03,acquisition
124.384,3.0,CS-,tools/blower.jpg,Old,extinction,MO,H,M,1.4269999999999998,memory_run-03,extinction
266.05,3.0,CS-,tools/hammer.jpg,Old,extinction,MO,H,M,1.187,memory_run-03,acquisition
273.134,3.0,CS-,tools/videogamecontroller.jpg,Old,extinction,MO,H,M,1.464,memory_run-03,extinction
368.06699999999995,3.0,CS-,tools/squeegee.jpg,Old,extinction,MN,M,M,1.994,memory_run-03,baseline
384.217,3.0,CS-,tools/chainsaw.jpg,Old,extinction,MO,H,M,1.679,memory_run-03,extinction
513.401,3.0,CS-,tools/toaster.jpg,Old,extinction,MN,M,M,2.07,memory_run-03,extinction
545.701,3.0,CS-,tools/duffelbag.jpg,Old,extinction,MN,M,M,1.828,memory_run-03,acquisition
49.533,3.0,CS-,tools/wateringcan.jpg,New,foil,DN,CR,CR,1.36,memory_run-01,
72.767,3.0,CS-,tools/burnisher.jpg,New,foil,MN,CR,CR,1.619,memory_run-01,
118.21700000000001,3.0,CS-,tools/whistle.jpg,New,foil,DO,FA,FA,1.499,memory_run-01,
126.28299999999999,3.0,CS-,tools/caulkinggun.jpg,New,foil,MO,FA,CR,1.474,memory_run-01,
158.567,3.0,CS-,tools/microscope.jpg,New,foil,DN,CR,CR,2.059,memory_run-01,
166.65,3.0,CS-,tools/keys.jpg,New,foil,MO,FA,CR,1.225,memory_run-01,
263.884,3.0,CS-,tools/grapplinghook.jpg,New,foil,MN,CR,CR,1.554,memory_run-01,
285.134,3.0,CS-,tools/lantern.jpg,New,foil,MN,CR,CR,2.226,memory_run-01,
314.5,3.0,CS-,tools/mellonballer.jpg,New,foil,DN,CR,CR,1.308,memory_run-01,
344.834,3.0,CS-,tools/engine.jpg,New,foil,DN,CR,CR,1.501,memory_run-01,
428.634,3.0,CS-,tools/whisk.jpg,New,foil,MO,FA,CR,1.331,memory_run-01,
450.85,3.0,CS-,tools/dremel.jpg,New,foil,MN,CR,CR,1.722,memory_run-01,
527.617,3.0,CS-,tools/electricdrill.jpg,New,foil,MO,FA,CR,1.848,memory_run-01,
557.9169999999998,3.0,CS-,tools/magnet.jpg,New,foil,MO,FA,CR,1.3130000000000002,memory_run-01,
564.984,3.0,CS-,tools/bolt.jpg,New,foil,MO,FA,CR,1.4769999999999999,memory_run-01,
595.284,3.0,CS-,tools/level.jpg,New,foil,MN,CR,CR,1.6019999999999999,memory_run-01,
32.333,3.0,CS-,tools/hedgeshears.jpg,New,foil,DO,FA,FA,0.888,memory_run-02,
53.6,3.0,CS-,tools/stapler.jpg,New,foil,MO,FA,CR,1.944,memory_run-02,
81.9,3.0,CS-,tools/scratchawl.jpg,New,foil,MN,CR,CR,1.365,memory_run-02,
117.3,3.0,CS-,tools/snowbrush.jpg,New,foil,MN,CR,CR,1.696,memory_run-02,
188.15,3.0,CS-,tools/pick.jpg,New,foil,MO,FA,CR,1.226,memory_run-02,
258.916,3.0,CS-,tools/duster.jpg,New,foil,DN,CR,CR,1.258,memory_run-02,
266.0,3.0,CS-,tools/pizzacutter.jpg,New,foil,MN,CR,CR,1.35,memory_run-02,
273.066,3.0,CS-,tools/telephone.jpg,New,foil,MO,FA,CR,1.3769999999999998,memory_run-02,
327.58299999999997,3.0,CS-,tools/laptop.jpg,New,foil,DN,CR,CR,2.185,memory_run-02,
335.666,3.0,CS-,tools/razorblade.jpg,New,foil,DN,CR,CR,1.244,memory_run-02,
367.95,3.0,CS-,tools/battery.jpg,New,foil,MN,CR,CR,1.5719999999999998,memory_run-02,
424.517,3.0,CS-,tools/flashlight.jpg,New,foil,MN,CR,CR,2.02,memory_run-02,
456.833,3.0,CS-,tools/sawblade.jpg,New,foil,MN,CR,CR,2.095,memory_run-02,
505.3,3.0,CS-,tools/clamp.jpg,New,foil,MO,FA,CR,1.403,memory_run-02,
553.7669999999998,3.0,CS-,tools/anvil.jpg,New,foil,MN,CR,CR,1.56,memory_run-02,
602.25,3.0,CS-,tools/carabiner.jpg,New,foil,MN,CR,CR,1.59,memory_run-02,
53.55,3.0,CS-,tools/vacuumcleaner.jpg,New,foil,MN,CR,CR,1.517,memory_run-03,
74.78399999999998,3.0,CS-,tools/clippers.jpg,New,foil,MO,FA,CR,1.621,memory_run-03,
88.95,3.0,CS-,tools/smartphone.jpg,New,foil,DN,CR,CR,1.915,memory_run-03,
103.1,3.0,CS-,tools/tape.jpg,New,foil,MO,FA,CR,1.69,memory_run-03,
209.43400000000003,3.0,CS-,tools/stethoscope.jpg,New,foil,MO,FA,CR,1.6130000000000002,memory_run-03,
223.584,3.0,CS-,tools/electricsewingmachine.jpg,New,foil,MN,CR,CR,1.5630000000000002,memory_run-03,
237.734,3.0,CS-,tools/vicegrips.jpg,New,foil,MN,CR,CR,1.261,memory_run-03,
244.8,3.0,CS-,tools/cuttingboard.jpg,New,foil,DN,CR,CR,1.805,memory_run-03,
287.267,3.0,CS-,tools/magnifyingglass.jpg,New,foil,MN,CR,CR,1.308,memory_run-03,
392.284,3.0,CS-,tools/nailgun.jpg,New,foil,MN,CR,CR,1.501,memory_run-03,
408.434,3.0,CS-,tools/watch.jpg,New,foil,DO,FA,FA,1.777,memory_run-03,
440.717,3.0,CS-,tools/shovel.jpg,New,foil,MO,FA,CR,1.784,memory_run-03,
473.017,3.0,CS-,tools/staplegun.jpg,New,foil,MN,CR,CR,2.457,memory_run-03,
505.31699999999995,3.0,CS-,tools/compass.jpg,New,foil,MO,FA,CR,2.0069999999999997,memory_run-03,
521.484,3.0,CS-,tools/hourglass.jpg,New,foil,MO,FA,CR,1.617,memory_run-03,
529.5509999999998,3.0,CS-,tools/crank.jpg,New,foil,MN,CR,CR,1.75,memory_run-03,
