onset,duration,trial_type,stimulus,memory_condition,encode_phase,response,low_confidence_accuracy,high_confidence_accuracy,response_time,phase,source_memory
4.033,3.0,CS+,animals/flea.jpg,Old,baseline,DO,H,H,1.973,memory_run-01,acquisition
55.8,3.0,CS+,animals/dragonfly.jpg,Old,baseline,DO,H,H,2.004,memory_run-01,acquisition
200.967,3.0,CS+,animals/angelfish.jpg,Old,baseline,MO,H,M,1.547,memory_run-01,extinction
275.084,3.0,CS+,animals/prayingmantis.jpg,Old,baseline,DO,H,H,1.504,memory_run-01,acquisition
427.284,3.0,CS+,animals/pike.jpg,Old,baseline,MO,H,M,1.5530000000000002,memory_run-01,acquisition
443.534,3.0,CS+,animals/crow.jpg,Old,baseline,DO,H,H,0.98,memory_run-01,acquisition
458.75,3.0,CS+,animals/ostrich.jpg,Old,baseline,MN,M,M,2.42,memory_run-01,baseline
465.86699999999996,3.0,CS+,animals/tiger.jpg,Old,baseline,MO,H,M,1.318,memory_run-01,acquisition
103.566,3.0,CS+,animals/caterpillarpeacockmoth.jpg,Old,baseline,DO,H,H,1.571,memory_run-02,acquisition
124.916,3.0,CS+,animals/mole.jpg,Old,baseline,DO,H,H,2.124,memory_run-02,acquisition
224.46599999999998,3.0,CS+,animals/boar.jpg,Old,baseline,DO,H,H,1.249,memory_run-02,acquisition
267.133,3.0,CS+,animals/gerbil.jpg,Old,baseline,MO,H,M,1.3259999999999998,memory_run-02,acquisition
337.1330000000001,3.0,CS+,animals/porcupine.jpg,Old,baseline,DO,H,H,0.9470000000000001,memory_run-02,acquisition
361.466,3.0,CS+,animals/pelican.jpg,Old,baseline,MN,M,M,1.8769999999999998,memory_run-02,baseline
450.81699999999995,3.0,CS+,animals/giraffe.jpg,Old,baseline,MN,M,M,1.7790000000000001,memory_run-02,extinction
458.93300000000005,3.0,CS+,animals/pigeon.jpg,Old,baseline,MO,H,M,1.84,memory_run-02,extinction
75.083,3.0,CS+,animals/herculesbeetle.jpg,Old,baseline,DO,H,H,1.6540000000000001,memory_run-03,acquisition
117.68299999999999,3.0,CS+,animals/quail.jpg,Old,baseline,MN,M,M,1.301,memory_run-03,baseline
174.56599999999997,3.0,CS+,animals/snapper.jpg,Old,baseline,MN,M,M,1.5430000000000001,memory_run-03,baseline
224.3,3.0,CS+,animals/hummingbird.jpg,Old,baseline,MO,H,M,1.122,memory_run-03,extinction
288.25,3.0,CS+,animals/waterbuffalo.jpg,Old,baseline,MN,M,M,1.643,memory_run-03,baseline
353.15,3.0,CS+,animals/baboon.jpg,Old,baseline,MO,H,M,1.4380000000000002,memory_run-03,extinction
450.43300000000005,3.0,CS+,animals/leopard.jpg,Old,baseline,DO,H,H,1.324,memory_run-03,acquisition
458.533,3.0,CS+,animals/cow.jpg,Old,baseline,DO,H,H,1.071,memory_run-03,acquisition
11.133,3.0,CS+,animals/assassinbug.jpg,Old,acquisition,MO,H,M,1.9069999999999998,memory_run-01,acquisition
86.234,3.0,CS+,animals/catfish.jpg,Old,acquisition,MN,M,M,1.8019999999999998,memory_run-01,extinction
154.3,3.0,CS+,animals/palmcockatoo.jpg,Old,acquisition,DO,H,H,1.8219999999999998,memory_run-01,acquisition
297.4170000000001,3.0,CS+,animals/ant.jpg,Old,acquisition,MO,H,M,2.167,memory_run-01,acquisition
366.4,3.0,CS+,animals/snail.jpg,Old,acquisition,DO,H,H,1.4280000000000002,memory_run-01,acquisition
435.4,3.0,CS+,animals/baldeagle.jpg,Old,acquisition,DO,H,H,1.236,memory_run-01,acquisition
473.98400000000004,3.0,CS+,animals/duck.jpg,Old,acquisition,MO,H,M,1.805,memory_run-01,acquisition
481.084,3.0,CS+,animals/shark.jpg,Old,acquisition,DO,H,H,0.8440000000000001,memory_run-01,acquisition
39.6,3.0,CS+,animals/firebug.jpg,Old,acquisition,MO,H,M,1.6980000000000002,memory_run-02,acquisition
110.68299999999999,3.0,CS+,animals/mahimahi.jpg,Old,acquisition,MO,H,M,1.209,memory_run-02,baseline
196.016,3.0,CS+,animals/herring.jpg,Old,acquisition,MO,H,M,1.229,memory_run-02,baseline
238.683,3.0,CS+,animals/dramaderry.jpg,Old,acquisition,MO,H,M,2.131,memory_run-02,acquisition
320.916,3.0,CS+,animals/camel.jpg,Old,acquisition,MN,M,M,2.108,memory_run-02,extinction
345.25,3.0,CS+,animals/mink.jpg,Old,acquisition,DO,H,H,1.155,memory_run-02,acquisition
467.033,3.0,CS+,animals/mouse.jpg,Old,acquisition,DO,H,H,1.087,memory_run-02,acquisition
475.15,3.0,CS+,animals/sheep.jpg,Old,acquisition,MO,H,M,1.401,memory_run-02,acquisition
67.983,3.0,CS+,animals/partridge.jpg,Old,acquisition,MO,H,M,1.392,memory_run-03,baseline
82.18299999999998,3.0,CS+,animals/anteater.jpg,Old,acquisition,DO,H,H,1.17,memory_run-03,extinction
210.1,3.0,CS+,animals/carp.jpg,Old,acquisition,MO,H,M,1.37,memory_run-03,acquisition
245.63299999999998,3.0,CS+,animals/turkey.jpg,Old,acquisition,MO,H,M,1.2919999999999998,memory_run-03,acquisition
385.55,3.0,CS+,animals/chipmunk.jpg,Old,acquisition,MO,H,M,1.415,memory_run-03,extinction
393.666,3.0,CS+,animals/seal.jpg,Old,acquisition,DO,H,H,1.124,memory_run-03,acquisition
466.63300000000004,3.0,CS+,animals/brown_bear.jpg,Old,acquisition,DO,H,H,1.35,memory_run-03,acquisition
474.75,3.0,CS+,animals/rabbit.jpg,Old,acquisition,MO,H,M,1.23,memory_run-03,baseline
47.683,3.0,CS+,animals/zebra.jpg,Old,extinction,DO,H,H,1.163,memory_run-01,acquisition
101.484,3.0,CS+,animals/aardvark.jpg,Old,extinction,MO,H,M,1.946,memory_run-01,extinction
192.85,3.0,CS+,animals/skunk.jpg,Old,extinction,MO,H,M,2.22,memory_run-01,acquisition
252.734,3.0,CS+,animals/finch.jpg,Old,extinction,MO,H,M,2.012,memory_run-01,baseline
335.934,3.0,CS+,animals/reindeer.jpg,Old,extinction,DN,M,M,2.061,memory_run-01,baseline
450.65,3.0,CS+,animals/llama.jpg,Old,extinction,MO,H,M,1.6369999999999998,memory_run-01,acquisition
489.2,3.0,CS+,animals/rhino.jpg,Old,extinction,MO,H,M,2.363,memory_run-01,baseline
497.31699999999995,3.0,CS+,animals/elephantafrican.jpg,Old,extinction,MO,H,M,1.094,memory_run-01,extinction
89.35,3.0,CS+,animals/caterpillarhawkmoth.jpg,Old,extinction,MO,H,M,1.7480000000000002,memory_run-02,acquisition
96.46600000000001,3.0,CS+,animals/hyena.jpg,Old,extinction,DO,H,H,1.7209999999999999,memory_run-02,acquisition
188.9,3.0,CS+,animals/cricket.jpg,Old,extinction,MO,H,M,1.186,memory_run-02,baseline
245.8,3.0,CS+,animals/goldfish.jpg,Old,extinction,MN,M,M,2.005,memory_run-02,baseline
304.716,3.0,CS+,animals/marmot.jpg,Old,extinction,MN,M,M,1.905,memory_run-02,baseline
329.033,3.0,CS+,animals/flamingo.jpg,Old,extinction,MN,M,M,1.222,memory_run-02,baseline
483.267,3.0,CS+,animals/shrimp.jpg,Old,extinction,MO,H,M,2.24,memory_run-02,extinction
491.36699999999996,3.0,CS+,animals/horse.jpg,Old,extinction,MN,M,M,1.9569999999999999,memory_run-02,extinction
4.033,3.0,CS+,animals/halibut.jpg,Old,extinction,MO,H,M,1.518,memory_run-03,extinction
131.9,3.0,CS+,animals/cranebug.jpg,Old,extinction,MO,H,M,1.344,memory_run-03,baseline
153.25,3.0,CS+,animals/starfish.jpg,Old,extinction,MN,M,M,1.297,memory_run-03,baseline
259.83299999999997,3.0,CS+,animals/canary.jpg,Old,extinction,MN,M,M,1.137,memory_run-03,baseline
361.25,3.0,CS+,animals/perch.jpg,Old,extinction,MN,M,M,1.735,memory_run-03,baseline
418.0,3.0,CS+,animals/salmon.jpg,Old,extinction,MN,M,M,1.743,memory_run-03,baseline
482.86699999999996,3.0,CS+,animals/racoon.jpg,Old,extinction,MO,H,M,1.124,memory_run-03,acquisition
490.967,3.0,CS+,animals/cat.jpg,Old,extinction,MO,H,M,1.672,memory_run-03,acquisition
32.45,3.0,CS+,animals/seaslug.jpg,New,foil,DN,CR,CR,1.959,memory_run-01,
79.1,3.0,CS+,animals/stickinsect.jpg,New,foil,,CR,CR,,memory_run-01,
108.6,3.0,CS+,animals/octopus.jpg,New,foil,DN,CR,CR,1.426,memory_run-01,
130.95,3.0,CS+,animals/bullfrog.jpg,New,foil,DN,CR,CR,1.419,memory_run-01,
169.517,3.0,CS+,animals/flounder.jpg,New,foil,MO,FA,CR,1.724,memory_run-01,
177.63400000000001,3.0,CS+,animals/tortoise.jpg,New,foil,MN,CR,CR,1.609,memory_run-01,
215.18400000000003,3.0,CS+,animals/highlandcow.jpg,New,foil,MN,CR,CR,2.178,memory_run-01,
223.3,3.0,CS+,animals/balloonfish.jpg,New,foil,DN,CR,CR,1.253,memory_run-01,
304.517,3.0,CS+,animals/panda.jpg,New,foil,,CR,CR,,memory_run-01,
373.517,3.0,CS+,animals/koala.jpg,New,foil,MN,CR,CR,2.219,memory_run-01,
396.85,3.0,CS+,animals/waterdragon.jpg,New,foil,MN,CR,CR,1.875,memory_run-01,
412.06699999999995,3.0,CS+,animals/crane.jpg,New,foil,MO,FA,CR,1.433,memory_run-01,
550.134,3.0,CS+,animals/ladybug.jpg,New,foil,MN,CR,CR,1.835,memory_run-01,
558.251,3.0,CS+,animals/monkey.jpg,New,foil,MO,FA,CR,1.874,memory_run-01,
566.367,3.0,CS+,animals/hermitcrab.jpg,New,foil,DN,CR,CR,1.791,memory_run-01,
574.467,3.0,CS+,animals/woodlouse.jpg,New,foil,MN,CR,CR,1.496,memory_run-01,
32.483000000000004,3.0,CS+,animals/wasp.jpg,New,foil,DN,CR,CR,1.4569999999999999,memory_run-02,
46.716,3.0,CS+,animals/beardeddragon.jpg,New,foil,MN,CR,CR,2.1719999999999997,memory_run-02,
53.816,3.0,CS+,animals/crab.jpg,New,foil,MN,CR,CR,2.5669999999999997,memory_run-02,
68.016,3.0,CS+,animals/rooster.jpg,New,foil,DN,CR,CR,1.6159999999999999,memory_run-02,
153.366,3.0,CS+,animals/dove.jpg,New,foil,MN,CR,CR,2.372,memory_run-02,
167.583,3.0,CS+,animals/slug.jpg,New,foil,DN,CR,CR,1.429,memory_run-02,
210.233,3.0,CS+,animals/leafinsect.jpg,New,foil,MN,CR,CR,1.587,memory_run-02,
281.383,3.0,CS+,animals/caracal.jpg,New,foil,MN,CR,CR,1.538,memory_run-02,
312.816,3.0,CS+,animals/marlin.jpg,New,foil,MN,CR,CR,1.506,memory_run-02,
385.816,3.0,CS+,animals/earthworm.jpg,New,foil,MN,CR,CR,1.6119999999999999,memory_run-02,
410.18300000000005,3.0,CS+,animals/tragopan.jpg,New,foil,MN,CR,CR,2.234,memory_run-02,
442.68300000000005,3.0,CS+,animals/malaysianjunglenymph.jpg,New,foil,MN,CR,CR,1.9169999999999998,memory_run-02,
548.1669999999998,3.0,CS+,animals/orangutan.jpg,New,foil,MN,CR,CR,1.7480000000000002,memory_run-02,
556.317,3.0,CS+,animals/armadillo.jpg,New,foil,MN,CR,CR,1.6540000000000001,memory_run-02,
564.433,3.0,CS+,animals/owl.jpg,New,foil,MN,CR,CR,1.814,memory_run-02,
572.55,3.0,CS+,animals/stinkbug.jpg,New,foil,MN,CR,CR,1.3330000000000002,memory_run-02,
32.466,3.0,CS+,animals/lion.jpg,New,foil,MO,FA,CR,1.383,memory_run-03,
46.683,3.0,CS+,animals/gecko.jpg,New,foil,MN,CR,CR,1.5030000000000001,memory_run-03,
96.383,3.0,CS+,animals/lobsterspiny.jpg,New,foil,MN,CR,CR,1.587,memory_run-03,
103.48299999999999,3.0,CS+,animals/toucan.jpg,New,foil,MN,CR,CR,1.253,memory_run-03,
146.13299999999995,3.0,CS+,animals/emu.jpg,New,foil,MO,FA,CR,2.3609999999999998,memory_run-03,
203.0,3.0,CS+,animals/clam.jpg,New,foil,MN,CR,CR,1.169,memory_run-03,
231.4,3.0,CS+,animals/cod.jpg,New,foil,MN,CR,CR,2.1919999999999997,memory_run-03,
252.733,3.0,CS+,animals/vulture.jpg,New,foil,MN,CR,CR,1.368,memory_run-03,
304.483,3.0,CS+,animals/ibises.jpg,New,foil,MN,CR,CR,1.119,memory_run-03,
328.816,3.0,CS+,animals/dockbug2.jpg,New,foil,MN,CR,CR,1.629,memory_run-03,
336.93300000000005,3.0,CS+,animals/lizard.jpg,New,foil,MN,CR,CR,2.184,memory_run-03,
442.31699999999995,3.0,CS+,animals/clownfish.jpg,New,foil,MN,CR,CR,1.55,memory_run-03,
547.683,3.0,CS+,animals/macaw.jpg,New,foil,MO,FA,CR,1.168,memory_run-03,
555.8,3.0,CS+,animals/kangaroo.jpg,New,foil,MO,FA,CR,1.181,memory_run-03,
563.9169999999998,3.0,CS+,animals/deer.jpg,New,foil,MN,CR,CR,1.262,memory_run-03,
572.033,3.0,CS+,animals/penguin.jpg,New,foil,MN,CR,CR,1.361,memory_run-03,
18.233,3.0,CS-,tools/gong.jpg,Old,baseline,DO,H,H,1.328,memory_run-01,acquisition
147.184,3.0,CS-,tools/beadingtool.jpg,Old,baseline,MO,H,M,2.311,memory_run-01,acquisition
185.75,3.0,CS-,tools/reflexhammer.jpg,Old,baseline,DO,H,H,1.649,memory_run-01,extinction
266.967,3.0,CS-,tools/cheesegrater.jpg,Old,baseline,DO,H,H,1.5830000000000002,memory_run-01,acquisition
380.634,3.0,CS-,tools/plunger.jpg,Old,baseline,DO,H,H,2.1630000000000003,memory_run-01,acquisition
419.167,3.0,CS-,tools/transmissionwrench.jpg,Old,baseline,MN,M,M,1.811,memory_run-01,baseline
504.434,3.0,CS-,tools/drillbit.jpg,Old,baseline,DO,H,H,2.113,memory_run-01,acquisition
512.55,3.0,CS-,tools/electricbreaker.jpg,Old,baseline,MN,M,M,2.094,memory_run-01,baseline
18.266,3.0,CS-,tools/plow.jpg,Old,baseline,DN,M,M,1.178,memory_run-02,extinction
60.916000000000004,3.0,CS-,tools/faxmachine.jpg,Old,baseline,DN,M,M,1.138,memory_run-02,baseline
174.7,3.0,CS-,tools/ropeandpulley.jpg,Old,baseline,MO,H,M,1.538,memory_run-02,extinction
203.13299999999998,3.0,CS-,tools/hairdryer.jpg,Old,baseline,DO,H,H,1.2229999999999999,memory_run-02,acquisition
402.066,3.0,CS-,tools/rollingpin.jpg,Old,baseline,MN,M,M,2.013,memory_run-02,acquisition
426.43300000000005,3.0,CS-,tools/gardenhose.jpg,Old,baseline,DO,H,H,1.1340000000000001,memory_run-02,acquisition
499.483,3.0,CS-,tools/scissors.jpg,Old,baseline,MN,M,M,1.8230000000000002,memory_run-02,baseline
507.583,3.0,CS-,tools/ladder.jpg,Old,baseline,MO,H,M,1.709,memory_run-02,acquisition
11.133,3.0,CS-,tools/shoehorn.jpg,Old,baseline,DO,H,H,1.496,memory_run-03,acquisition
89.28299999999999,3.0,CS-,tools/weldinghelmet.jpg,Old,baseline,MN,M,M,1.7919999999999998,memory_run-03,baseline
195.88299999999998,3.0,CS-,tools/stove.jpg,Old,baseline,MO,H,M,1.965,memory_run-03,acquisition
274.033,3.0,CS-,tools/paintroller.jpg,Old,baseline,DO,H,H,1.036,memory_run-03,baseline
296.35,3.0,CS-,tools/chisel.jpg,Old,baseline,MN,M,M,1.7109999999999999,memory_run-03,baseline
434.2,3.0,CS-,tools/rake.jpg,Old,baseline,MO,H,M,1.2819999999999998,memory_run-03,acquisition
499.06699999999995,3.0,CS-,tools/wheelbarrow.jpg,Old,baseline,MO,H,M,1.212,memory_run-03,baseline
507.18300000000005,3.0,CS-,tools/pliers.jpg,Old,baseline,MN,M,M,1.224,memory_run-03,baseline
25.35,3.0,CS-,tools/benchdogs.jpg,Old,acquisition,MN,M,M,2.5989999999999998,memory_run-01,extinction
123.834,3.0,CS-,tools/beaker.jpg,Old,acquisition,MO,H,M,2.728,memory_run-01,extinction
162.4,3.0,CS-,tools/tubeflaring.jpg,Old,acquisition,MN,M,M,2.477,memory_run-01,extinction
237.53400000000002,3.0,CS-,tools/sander.jpg,Old,acquisition,MO,H,M,1.921,memory_run-01,baseline
344.05,3.0,CS-,tools/mallet.jpg,Old,acquisition,MO,H,M,1.685,memory_run-01,extinction
404.967,3.0,CS-,tools/vegetablepeeler.jpg,Old,acquisition,MO,H,M,1.9709999999999999,memory_run-01,extinction
520.6669999999998,3.0,CS-,tools/viceclamp.jpg,Old,acquisition,MO,H,M,2.247,memory_run-01,baseline
527.784,3.0,CS-,tools/pruner.jpg,Old,acquisition,MN,M,M,1.751,memory_run-01,baseline
25.38300000000001,3.0,CS-,tools/levelmount.jpg,Old,acquisition,DN,M,M,1.527,memory_run-02,baseline
117.8,3.0,CS-,tools/blackboard.jpg,Old,acquisition,MN,M,M,1.58,memory_run-02,extinction
231.56599999999997,3.0,CS-,tools/sparkplug.jpg,Old,acquisition,MO,H,M,2.028,memory_run-02,extinction
252.9,3.0,CS-,tools/fan.jpg,Old,acquisition,DO,H,H,1.103,memory_run-02,acquisition
288.483,3.0,CS-,tools/thermometer.jpg,Old,acquisition,MO,H,M,1.51,memory_run-02,acquisition
393.93300000000005,3.0,CS-,tools/measuringcups.jpg,Old,acquisition,MO,H,M,1.75,memory_run-02,baseline
515.7,3.0,CS-,tools/broom.jpg,Old,acquisition,DO,H,H,1.339,memory_run-02,baseline
523.8,3.0,CS-,tools/ruler.jpg,Old,acquisition,DO,H,H,1.077,memory_run-02,acquisition
18.25,3.0,CS-,tools/eraser.jpg,Old,acquisition,MN,M,M,1.151,memory_run-03,acquisition
25.366,3.0,CS-,tools/woodchipper.jpg,Old,acquisition,MN,M,M,1.272,memory_run-03,extinction
188.783,3.0,CS-,tools/routerplane.jpg,Old,acquisition,DO,H,H,1.466,memory_run-03,acquisition
281.133,3.0,CS-,tools/measuringdevice.jpg,Old,acquisition,MN,M,M,1.817,memory_run-03,acquisition
312.58299999999997,3.0,CS-,tools/weedeater.jpg,Old,acquisition,MN,M,M,1.181,memory_run-03,extinction
426.1,3.0,CS-,tools/lawnmower.jpg,Old,acquisition,MO,H,M,1.6369999999999998,memory_run-03,extinction
515.283,3.0,CS-,tools/spoon.jpg,Old,acquisition,MN,M,M,1.218,memory_run-03,baseline
523.383,3.0,CS-,tools/wrench.jpg,Old,acquisition,MO,H,M,1.071,memory_run-03,baseline
71.0,3.0,CS-,tools/campingstove.jpg,Old,extinction,MO,H,M,2.3209999999999997,memory_run-01,acquisition
116.71700000000001,3.0,CS-,tools/carpetblower.jpg,Old,extinction,MO,H,M,2.187,memory_run-01,extinction
230.417,3.0,CS-,tools/treadmill.jpg,Old,extinction,DN,M,M,1.4169999999999998,memory_run-01,baseline
245.63400000000001,3.0,CS-,tools/extensioncord.jpg,Old,extinction,MN,M,M,1.673,memory_run-01,baseline
312.634,3.0,CS-,tools/padlock.jpg,Old,extinction,DO,H,H,1.59,memory_run-01,acquisition
328.834,3.0,CS-,tools/bucket.jpg,Old,extinction,DN,M,M,1.915,memory_run-01,extinction
534.9,3.0,CS-,tools/paintbrush.jpg,Old,extinction,DN,M,M,1.494,memory_run-01,extinction
542.0169999999998,3.0,CS-,tools/screwdriver.jpg,Old,extinction,MN,M,M,1.91,memory_run-01,baseline
75.116,3.0,CS-,tools/camera.jpg,Old,extinction,DN,M,M,2.128,memory_run-02,acquisition
139.13299999999998,3.0,CS-,tools/solderingtorch.jpg,Old,extinction,MO,H,M,1.8259999999999998,memory_run-02,baseline
160.466,3.0,CS-,tools/microwave.jpg,Old,extinction,MN,M,M,1.774,memory_run-02,baseline
274.26599999999996,3.0,CS-,tools/workbench.jpg,Old,extinction,MN,M,M,1.8769999999999998,memory_run-02,baseline
369.583,3.0,CS-,tools/edger.jpg,Old,extinction,MO,H,M,2.085,memory_run-02,extinction
434.566,3.0,CS-,tools/jumpercables.jpg,Old,extinction,MO,H,M,1.729,memory_run-02,baseline
531.9169999999998,3.0,CS-,tools/monkeywrench.jpg,Old,extinction,MN,M,M,1.6740000000000002,memory_run-02,baseline
540.033,3.0,CS-,tools/measuringtape.jpg,Old,extinction,DO,H,H,1.4469999999999998,memory_run-02,extinction
60.883,3.0,CS-,tools/videogamecontroller.jpg,Old,extinction,DO,H,H,1.125,memory_run-03,extinction
110.583,3.0,CS-,tools/duffelbag.jpg,Old,extinction,MN,M,M,1.5759999999999998,memory_run-03,extinction
167.46599999999995,3.0,CS-,tools/airpump.jpg,Old,extinction,MN,M,M,1.256,memory_run-03,extinction
181.683,3.0,CS-,tools/toaster.jpg,Old,extinction,MN,M,M,1.157,memory_run-03,acquisition
320.7,3.0,CS-,tools/squeegee.jpg,Old,extinction,MO,H,M,1.6669999999999998,memory_run-03,extinction
401.767,3.0,CS-,tools/blower.jpg,Old,extinction,MO,H,M,1.429,memory_run-03,acquisition
531.4830000000002,3.0,CS-,tools/chainsaw.jpg,Old,extinction,MO,H,M,1.055,memory_run-03,acquisition
539.5830000000002,3.0,CS-,tools/hammer.jpg,Old,extinction,MN,M,M,1.006,memory_run-03,extinction
40.567,3.0,CS-,tools/whisk.jpg,New,foil,MO,FA,CR,1.767,memory_run-01,
63.9,3.0,CS-,tools/engine.jpg,New,foil,DN,CR,CR,1.6880000000000002,memory_run-01,
94.35,3.0,CS-,tools/bolt.jpg,New,foil,MN,CR,CR,1.8430000000000002,memory_run-01,
139.067,3.0,CS-,tools/wateringcan.jpg,New,foil,DN,CR,CR,2.675,memory_run-01,
208.084,3.0,CS-,tools/mellonballer.jpg,New,foil,MN,CR,CR,1.768,memory_run-01,
259.85,3.0,CS-,tools/keys.jpg,New,foil,DN,CR,CR,1.386,memory_run-01,
282.184,3.0,CS-,tools/microscope.jpg,New,foil,MN,CR,CR,1.568,memory_run-01,
289.3,3.0,CS-,tools/electricdrill.jpg,New,foil,DN,CR,CR,1.6669999999999998,memory_run-01,
320.7340000000001,3.0,CS-,tools/caulkinggun.jpg,New,foil,DN,CR,CR,1.341,memory_run-01,
351.167,3.0,CS-,tools/grapplinghook.jpg,New,foil,MN,CR,CR,1.686,memory_run-01,
359.284,3.0,CS-,tools/burnisher.jpg,New,foil,DN,CR,CR,2.286,memory_run-01,
388.75,3.0,CS-,tools/dremel.jpg,New,foil,DN,CR,CR,2.19,memory_run-01,
582.5840000000002,3.0,CS-,tools/level.jpg,New,foil,MN,CR,CR,2.2840000000000003,memory_run-01,
590.701,3.0,CS-,tools/magnet.jpg,New,foil,MN,CR,CR,1.861,memory_run-01,
597.817,3.0,CS-,tools/whistle.jpg,New,foil,DN,CR,CR,1.5030000000000001,memory_run-01,
605.934,3.0,CS-,tools/lantern.jpg,New,foil,MN,CR,CR,1.9380000000000002,memory_run-01,
4.033,3.0,CS-,tools/snowbrush.jpg,New,foil,MN,CR,CR,1.8130000000000002,memory_run-02,
11.15,3.0,CS-,tools/stapler.jpg,New,foil,MN,CR,CR,1.25,memory_run-02,
82.23299999999998,3.0,CS-,tools/telephone.jpg,New,foil,MN,CR,CR,2.352,memory_run-02,
132.016,3.0,CS-,tools/razorblade.jpg,New,foil,DN,CR,CR,1.3259999999999998,memory_run-02,
146.25,3.0,CS-,tools/laptop.jpg,New,foil,MN,CR,CR,2.158,memory_run-02,
181.8,3.0,CS-,tools/pizzacutter.jpg,New,foil,MN,CR,CR,1.3159999999999998,memory_run-02,
217.35,3.0,CS-,tools/hedgeshears.jpg,New,foil,MN,CR,CR,1.5619999999999998,memory_run-02,
260.01599999999996,3.0,CS-,tools/duster.jpg,New,foil,DN,CR,CR,1.8519999999999999,memory_run-02,
296.616,3.0,CS-,tools/carabiner.jpg,New,foil,MN,CR,CR,1.9380000000000002,memory_run-02,
353.35,3.0,CS-,tools/anvil.jpg,New,foil,MN,CR,CR,1.8780000000000001,memory_run-02,
377.7,3.0,CS-,tools/pick.jpg,New,foil,MO,FA,CR,1.297,memory_run-02,
418.316,3.0,CS-,tools/scratchawl.jpg,New,foil,MN,CR,CR,1.68,memory_run-02,
580.65,3.0,CS-,tools/clamp.jpg,New,foil,MN,CR,CR,1.449,memory_run-02,
588.7669999999998,3.0,CS-,tools/sawblade.jpg,New,foil,DN,CR,CR,1.496,memory_run-02,
596.883,3.0,CS-,tools/flashlight.jpg,New,foil,MN,CR,CR,1.5590000000000002,memory_run-02,
605.0,3.0,CS-,tools/battery.jpg,New,foil,MN,CR,CR,1.554,memory_run-02,
39.566,3.0,CS-,tools/vicegrips.jpg,New,foil,MN,CR,CR,1.3459999999999999,memory_run-03,
53.783,3.0,CS-,tools/vacuumcleaner.jpg,New,foil,MN,CR,CR,1.758,memory_run-03,
124.8,3.0,CS-,tools/nailgun.jpg,New,foil,MN,CR,CR,2.157,memory_run-03,
139.016,3.0,CS-,tools/smartphone.jpg,New,foil,DN,CR,CR,1.499,memory_run-03,
160.366,3.0,CS-,tools/electricsewingmachine.jpg,New,foil,MN,CR,CR,1.393,memory_run-03,
217.2,3.0,CS-,tools/cuttingboard.jpg,New,foil,MN,CR,CR,1.358,memory_run-03,
238.5,3.0,CS-,tools/staplegun.jpg,New,foil,MN,CR,CR,1.183,memory_run-03,
266.933,3.0,CS-,tools/stethoscope.jpg,New,foil,DO,FA,FA,1.2570000000000001,memory_run-03,
345.05,3.0,CS-,tools/hourglass.jpg,New,foil,MN,CR,CR,1.069,memory_run-03,
369.35,3.0,CS-,tools/shovel.jpg,New,foil,MO,FA,CR,1.6380000000000001,memory_run-03,
377.45,3.0,CS-,tools/clippers.jpg,New,foil,MN,CR,CR,1.6380000000000001,memory_run-03,
409.88300000000004,3.0,CS-,tools/watch.jpg,New,foil,DN,CR,CR,1.4269999999999998,memory_run-03,
580.133,3.0,CS-,tools/compass.jpg,New,foil,MN,CR,CR,1.296,memory_run-03,
588.25,3.0,CS-,tools/magnifyingglass.jpg,New,foil,MN,CR,CR,1.651,memory_run-03,
596.35,3.0,CS-,tools/crank.jpg,New,foil,MN,CR,CR,1.155,memory_run-03,
604.45,3.0,CS-,tools/tape.jpg,New,foil,MN,CR,CR,1.296,memory_run-03,
