onset,duration,trial_type,stimulus,memory_condition,encode_phase,response,low_confidence_accuracy,high_confidence_accuracy,response_time,phase,source_memory
41.75,3.0,CS+,tools/gong.jpg,Old,baseline,DO,H,H,2.362,memory_run-01,acquisition
132.45,3.0,CS+,tools/beadingtool.jpg,Old,baseline,MO,H,M,2.5639999999999996,memory_run-01,acquisition
256.666,3.0,CS+,tools/reflexhammer.jpg,Old,baseline,DO,H,H,1.295,memory_run-01,acquisition
264.8,3.0,CS+,tools/cheesegrater.jpg,Old,baseline,MN,M,M,2.202,memory_run-01,acquisition
385.93300000000005,3.0,CS+,tools/plunger.jpg,Old,baseline,DO,H,H,1.091,memory_run-01,extinction
454.15,3.0,CS+,tools/transmissionwrench.jpg,Old,baseline,MO,H,M,2.623,memory_run-01,acquisition
506.13300000000004,3.0,CS+,tools/drillbit.jpg,Old,baseline,DO,H,H,0.998,memory_run-01,acquisition
514.266,3.0,CS+,tools/electricbreaker.jpg,Old,baseline,MO,H,M,2.21,memory_run-01,baseline
4.034,3.0,CS+,tools/plow.jpg,Old,baseline,MO,H,M,1.521,memory_run-02,extinction
61.167,3.0,CS+,tools/faxmachine.jpg,Old,baseline,DN,M,M,1.0290000000000001,memory_run-02,baseline
246.88299999999998,3.0,CS+,tools/ropeandpulley.jpg,Old,baseline,DN,M,M,1.157,memory_run-02,baseline
282.55,3.0,CS+,tools/hairdryer.jpg,Old,baseline,MO,H,M,1.933,memory_run-02,acquisition
314.084,3.0,CS+,tools/rollingpin.jpg,Old,baseline,DO,H,H,0.8959999999999999,memory_run-02,baseline
403.56699999999995,3.0,CS+,tools/gardenhose.jpg,Old,baseline,MO,H,M,1.38,memory_run-02,extinction
501.283,3.0,CS+,tools/scissors.jpg,Old,baseline,MO,H,M,1.476,memory_run-02,baseline
509.417,3.0,CS+,tools/ladder.jpg,Old,baseline,DO,H,H,1.8980000000000001,memory_run-02,acquisition
54.083,3.0,CS+,tools/shoehorn.jpg,Old,baseline,MO,H,M,1.811,memory_run-03,acquisition
89.73299999999998,3.0,CS+,tools/weldinghelmet.jpg,Old,baseline,MO,H,M,1.466,memory_run-03,acquisition
168.13299999999995,3.0,CS+,tools/stove.jpg,Old,baseline,MN,M,M,1.4069999999999998,memory_run-03,extinction
196.71599999999998,3.0,CS+,tools/paintroller.jpg,Old,baseline,MO,H,M,1.307,memory_run-03,baseline
427.866,3.0,CS+,tools/chisel.jpg,Old,baseline,MN,M,M,2.096,memory_run-03,acquisition
435.983,3.0,CS+,tools/rake.jpg,Old,baseline,DO,H,H,1.165,memory_run-03,acquisition
501.116,3.0,CS+,tools/wheelbarrow.jpg,Old,baseline,DO,H,H,0.9640000000000001,memory_run-03,acquisition
509.249,3.0,CS+,tools/pliers.jpg,Old,baseline,MO,H,M,1.016,memory_run-03,baseline
27.467,3.0,CS+,tools/benchdogs.jpg,Old,acquisition,DO,H,H,2.006,memory_run-01,acquisition
48.9,3.0,CS+,tools/beaker.jpg,Old,acquisition,DO,H,H,1.561,memory_run-01,acquisition
234.266,3.0,CS+,tools/tubeflaring.jpg,Old,acquisition,MO,H,M,2.5180000000000002,memory_run-01,baseline
280.066,3.0,CS+,tools/sander.jpg,Old,acquisition,DO,H,H,1.704,memory_run-01,acquisition
341.116,3.0,CS+,tools/mallet.jpg,Old,acquisition,DO,H,H,1.5230000000000001,memory_run-01,acquisition
400.216,3.0,CS+,tools/vegetablepeeler.jpg,Old,acquisition,DO,H,H,1.095,memory_run-01,baseline
522.4,3.0,CS+,tools/viceclamp.jpg,Old,acquisition,DO,H,H,1.2790000000000001,memory_run-01,acquisition
530.533,3.0,CS+,tools/pruner.jpg,Old,acquisition,DO,H,H,1.163,memory_run-01,acquisition
111.184,3.0,CS+,tools/levelmount.jpg,Old,acquisition,DO,H,H,1.109,memory_run-02,acquisition
132.61700000000002,3.0,CS+,tools/blackboard.jpg,Old,acquisition,MN,M,M,1.666,memory_run-02,extinction
211.183,3.0,CS+,tools/sparkplug.jpg,Old,acquisition,MO,H,M,1.255,memory_run-02,acquisition
275.433,3.0,CS+,tools/fan.jpg,Old,acquisition,DO,H,H,1.285,memory_run-02,extinction
305.95,3.0,CS+,tools/thermometer.jpg,Old,acquisition,DO,H,H,1.262,memory_run-02,acquisition
436.167,3.0,CS+,tools/measuringcups.jpg,Old,acquisition,MO,H,M,2.156,memory_run-02,acquisition
517.55,3.0,CS+,tools/broom.jpg,Old,acquisition,DO,H,H,1.9780000000000002,memory_run-02,baseline
525.6669999999998,3.0,CS+,tools/ruler.jpg,Old,acquisition,DO,H,H,1.002,memory_run-02,extinction
4.05,3.0,CS+,tools/eraser.jpg,Old,acquisition,DO,H,H,1.569,memory_run-03,extinction
39.8,3.0,CS+,tools/woodchipper.jpg,Old,acquisition,MO,H,M,1.859,memory_run-03,acquisition
189.583,3.0,CS+,tools/routerplane.jpg,Old,acquisition,DO,H,H,0.9890000000000001,memory_run-03,acquisition
268.183,3.0,CS+,tools/measuringdevice.jpg,Old,acquisition,DO,H,H,0.986,memory_run-03,acquisition
289.616,3.0,CS+,tools/weedeater.jpg,Old,acquisition,DO,H,H,1.176,memory_run-03,acquisition
370.966,3.0,CS+,tools/lawnmower.jpg,Old,acquisition,DO,H,H,1.1840000000000002,memory_run-03,acquisition
517.366,3.0,CS+,tools/spoon.jpg,Old,acquisition,DO,H,H,1.06,memory_run-03,acquisition
525.4830000000002,3.0,CS+,tools/wrench.jpg,Old,acquisition,DO,H,H,0.731,memory_run-03,acquisition
34.617,3.0,CS+,tools/campingstove.jpg,Old,extinction,MO,H,M,1.995,memory_run-01,acquisition
139.6,3.0,CS+,tools/carpetblower.jpg,Old,extinction,MN,M,M,1.693,memory_run-01,extinction
163.0,3.0,CS+,tools/treadmill.jpg,Old,extinction,MO,H,M,2.259,memory_run-01,baseline
227.15,3.0,CS+,tools/extensioncord.jpg,Old,extinction,MN,M,M,2.01,memory_run-01,baseline
377.8,3.0,CS+,tools/padlock.jpg,Old,extinction,DO,H,H,1.227,memory_run-01,acquisition
446.01599999999996,3.0,CS+,tools/bucket.jpg,Old,extinction,MO,H,M,1.568,memory_run-01,acquisition
538.6659999999998,3.0,CS+,tools/paintbrush.jpg,Old,extinction,MO,H,M,2.136,memory_run-01,acquisition
545.783,3.0,CS+,tools/screwdriver.jpg,Old,extinction,DO,H,H,1.8630000000000002,memory_run-01,acquisition
11.184000000000001,3.0,CS+,tools/camera.jpg,Old,extinction,DO,H,H,1.421,memory_run-02,acquisition
118.334,3.0,CS+,tools/solderingtorch.jpg,Old,extinction,DO,H,H,1.008,memory_run-02,acquisition
161.184,3.0,CS+,tools/microwave.jpg,Old,extinction,MO,H,M,1.518,memory_run-02,baseline
175.467,3.0,CS+,tools/workbench.jpg,Old,extinction,,M,M,,memory_run-02,acquisition
387.3,3.0,CS+,tools/edger.jpg,Old,extinction,MN,M,M,1.9140000000000001,memory_run-02,acquisition
428.017,3.0,CS+,tools/jumpercables.jpg,Old,extinction,DO,H,H,1.209,memory_run-02,extinction
533.8,3.0,CS+,tools/monkeywrench.jpg,Old,extinction,DO,H,H,0.732,memory_run-02,acquisition
541.9169999999998,3.0,CS+,tools/measuringtape.jpg,Old,extinction,DO,H,H,2.596,memory_run-02,acquisition
96.85,3.0,CS+,tools/videogamecontroller.jpg,Old,extinction,DO,H,H,1.011,memory_run-03,baseline
125.35,3.0,CS+,tools/duffelbag.jpg,Old,extinction,DO,H,H,1.5519999999999998,memory_run-03,baseline
239.61599999999999,3.0,CS+,tools/airpump.jpg,Old,extinction,MO,H,M,1.405,memory_run-03,acquisition
253.916,3.0,CS+,tools/toaster.jpg,Old,extinction,DO,H,H,1.001,memory_run-03,acquisition
314.01599999999996,3.0,CS+,tools/squeegee.jpg,Old,extinction,DO,H,H,1.234,memory_run-03,acquisition
322.133,3.0,CS+,tools/blower.jpg,Old,extinction,DO,H,H,0.9540000000000001,memory_run-03,acquisition
533.616,3.0,CS+,tools/chainsaw.jpg,Old,extinction,DO,H,H,1.124,memory_run-03,acquisition
541.766,3.0,CS+,tools/hammer.jpg,Old,extinction,DO,H,H,1.143,memory_run-03,acquisition
79.467,3.0,CS+,tools/bolt.jpg,New,foil,MO,FA,CR,1.482,memory_run-01,
86.6,3.0,CS+,tools/whistle.jpg,New,foil,DN,CR,CR,2.488,memory_run-01,
93.75,3.0,CS+,tools/engine.jpg,New,foil,DN,CR,CR,1.275,memory_run-01,
147.733,3.0,CS+,tools/burnisher.jpg,New,foil,MO,FA,CR,1.848,memory_run-01,
187.45,3.0,CS+,tools/magnet.jpg,New,foil,DN,CR,CR,1.197,memory_run-01,
195.6,3.0,CS+,tools/mellonballer.jpg,New,foil,DN,CR,CR,1.06,memory_run-01,
211.88299999999998,3.0,CS+,tools/lantern.jpg,New,foil,DN,CR,CR,1.571,memory_run-01,
296.316,3.0,CS+,tools/microscope.jpg,New,foil,DN,CR,CR,1.055,memory_run-01,
318.733,3.0,CS+,tools/grapplinghook.jpg,New,foil,DN,CR,CR,1.7269999999999999,memory_run-01,
355.38300000000015,3.0,CS+,tools/caulkinggun.jpg,New,foil,MO,FA,CR,1.541,memory_run-01,
362.533,3.0,CS+,tools/electricdrill.jpg,New,foil,MN,CR,CR,1.9580000000000002,memory_run-01,
431.733,3.0,CS+,tools/whisk.jpg,New,foil,MN,CR,CR,1.4280000000000002,memory_run-01,
585.466,3.0,CS+,tools/keys.jpg,New,foil,MO,FA,CR,1.5330000000000001,memory_run-01,
592.6,3.0,CS+,tools/dremel.jpg,New,foil,MN,CR,CR,1.37,memory_run-01,
600.75,3.0,CS+,tools/wateringcan.jpg,New,foil,MN,CR,CR,1.274,memory_run-01,
607.9,3.0,CS+,tools/level.jpg,New,foil,DN,CR,CR,1.2919999999999998,memory_run-01,
25.467,3.0,CS+,tools/stapler.jpg,New,foil,MN,CR,CR,1.214,memory_run-02,
39.734,3.0,CS+,tools/sawblade.jpg,New,foil,DN,CR,CR,1.113,memory_run-02,
46.867,3.0,CS+,tools/snowbrush.jpg,New,foil,DN,CR,CR,1.6340000000000001,memory_run-02,
139.75,3.0,CS+,tools/duster.jpg,New,foil,MN,CR,CR,1.158,memory_run-02,
189.767,3.0,CS+,tools/clamp.jpg,New,foil,DO,FA,FA,0.878,memory_run-02,
218.334,3.0,CS+,tools/battery.jpg,New,foil,DN,CR,CR,2.53,memory_run-02,
225.45,3.0,CS+,tools/flashlight.jpg,New,foil,MO,FA,CR,2.392,memory_run-02,
232.61700000000002,3.0,CS+,tools/telephone.jpg,New,foil,DN,CR,CR,1.446,memory_run-02,
297.817,3.0,CS+,tools/razorblade.jpg,New,foil,DN,CR,CR,1.6,memory_run-02,
322.2,3.0,CS+,tools/pick.jpg,New,foil,MN,CR,CR,2.197,memory_run-02,
346.584,3.0,CS+,tools/scratchawl.jpg,New,foil,MO,FA,CR,2.136,memory_run-02,
395.417,3.0,CS+,tools/carabiner.jpg,New,foil,MN,CR,CR,1.8230000000000002,memory_run-02,
582.567,3.0,CS+,tools/laptop.jpg,New,foil,DO,FA,FA,1.4609999999999999,memory_run-02,
590.7,3.0,CS+,tools/anvil.jpg,New,foil,DN,CR,CR,1.472,memory_run-02,
598.85,3.0,CS+,tools/hedgeshears.jpg,New,foil,MN,CR,CR,1.699,memory_run-02,
606.967,3.0,CS+,tools/pizzacutter.jpg,New,foil,DN,CR,CR,1.321,memory_run-02,
11.2,3.0,CS+,tools/cuttingboard.jpg,New,foil,DN,CR,CR,1.092,memory_run-03,
68.35,3.0,CS+,tools/compass.jpg,New,foil,DN,CR,CR,1.146,memory_run-03,
111.083,3.0,CS+,tools/shovel.jpg,New,foil,MO,FA,CR,1.46,memory_run-03,
132.466,3.0,CS+,tools/electricsewingmachine.jpg,New,foil,MN,CR,CR,1.329,memory_run-03,
153.85,3.0,CS+,tools/vicegrips.jpg,New,foil,DO,FA,FA,1.058,memory_run-03,
182.433,3.0,CS+,tools/smartphone.jpg,New,foil,DN,CR,CR,1.392,memory_run-03,
211.033,3.0,CS+,tools/hourglass.jpg,New,foil,DN,CR,CR,1.218,memory_run-03,
275.33299999999997,3.0,CS+,tools/clippers.jpg,New,foil,MO,FA,CR,1.138,memory_run-03,
297.749,3.0,CS+,tools/crank.jpg,New,foil,MO,FA,CR,1.32,memory_run-03,
346.533,3.0,CS+,tools/tape.jpg,New,foil,MO,FA,CR,1.073,memory_run-03,
362.833,3.0,CS+,tools/staplegun.jpg,New,foil,MO,FA,CR,1.436,memory_run-03,
419.733,3.0,CS+,tools/vacuumcleaner.jpg,New,foil,DN,CR,CR,1.62,memory_run-03,
582.4159999999998,3.0,CS+,tools/stethoscope.jpg,New,foil,MO,FA,CR,1.693,memory_run-03,
590.533,3.0,CS+,tools/magnifyingglass.jpg,New,foil,DN,CR,CR,1.39,memory_run-03,
598.683,3.0,CS+,tools/watch.jpg,New,foil,DN,CR,CR,0.857,memory_run-03,
606.8330000000002,3.0,CS+,tools/nailgun.jpg,New,foil,MO,FA,CR,2.5,memory_run-03,
57.05,3.0,CS-,animals/flea.jpg,Old,baseline,MO,H,M,1.4180000000000001,memory_run-01,baseline
109.01700000000001,3.0,CS-,animals/dragonfly.jpg,Old,baseline,DO,H,H,1.892,memory_run-01,acquisition
171.15,3.0,CS-,animals/angelfish.jpg,Old,baseline,DO,H,H,1.7369999999999999,memory_run-01,extinction
272.933,3.0,CS-,animals/prayingmantis.jpg,Old,baseline,MN,M,M,1.6669999999999998,memory_run-01,baseline
370.68300000000005,3.0,CS-,animals/pike.jpg,Old,baseline,MO,H,M,1.78,memory_run-01,baseline
438.866,3.0,CS-,animals/crow.jpg,Old,baseline,MN,M,M,2.4290000000000003,memory_run-01,baseline
461.3,3.0,CS-,animals/ostrich.jpg,Old,baseline,MO,H,M,1.3019999999999998,memory_run-01,extinction
469.45,3.0,CS-,animals/tiger.jpg,Old,baseline,MO,H,M,1.591,memory_run-01,acquisition
68.3,3.0,CS-,animals/caterpillarpeacockmoth.jpg,Old,baseline,MO,H,M,1.624,memory_run-02,acquisition
104.05,3.0,CS-,animals/mole.jpg,Old,baseline,DO,H,H,1.6159999999999999,memory_run-02,acquisition
196.917,3.0,CS-,animals/boar.jpg,Old,baseline,MN,M,M,1.756,memory_run-02,acquisition
261.16700000000003,3.0,CS-,animals/gerbil.jpg,Old,baseline,MO,H,M,1.251,memory_run-02,baseline
411.717,3.0,CS-,animals/porcupine.jpg,Old,baseline,MO,H,M,2.0980000000000003,memory_run-02,baseline
419.86699999999996,3.0,CS-,animals/pelican.jpg,Old,baseline,MN,M,M,1.489,memory_run-02,extinction
452.467,3.0,CS-,animals/giraffe.jpg,Old,baseline,MN,M,M,1.527,memory_run-02,baseline
460.6,3.0,CS-,animals/pigeon.jpg,Old,baseline,DO,H,H,1.348,memory_run-02,extinction
32.633,3.0,CS-,animals/herculesbeetle.jpg,Old,baseline,MO,H,M,1.442,memory_run-03,extinction
46.95,3.0,CS-,animals/quail.jpg,Old,baseline,MN,M,M,1.371,memory_run-03,extinction
203.88299999999998,3.0,CS-,animals/snapper.jpg,Old,baseline,MN,M,M,1.072,memory_run-03,baseline
232.483,3.0,CS-,animals/hummingbird.jpg,Old,baseline,MN,M,M,1.3119999999999998,memory_run-03,acquisition
354.68300000000005,3.0,CS-,animals/waterbuffalo.jpg,Old,baseline,MN,M,M,1.6969999999999998,memory_run-03,extinction
444.116,3.0,CS-,animals/baboon.jpg,Old,baseline,MO,H,M,2.191,memory_run-03,extinction
452.26599999999996,3.0,CS-,animals/leopard.jpg,Old,baseline,MN,M,M,1.1079999999999999,memory_run-03,baseline
460.43300000000005,3.0,CS-,animals/cow.jpg,Old,baseline,MN,M,M,1.327,memory_run-03,baseline
4.05,3.0,CS-,animals/assassinbug.jpg,Old,acquisition,MO,H,M,1.8630000000000002,memory_run-01,baseline
11.183,3.0,CS-,animals/catfish.jpg,Old,acquisition,MN,M,M,2.33,memory_run-01,baseline
203.75,3.0,CS-,animals/palmcockatoo.jpg,Old,acquisition,MO,H,M,1.645,memory_run-01,baseline
241.4,3.0,CS-,animals/ant.jpg,Old,acquisition,MN,M,M,2.001,memory_run-01,baseline
325.866,3.0,CS-,animals/snail.jpg,Old,acquisition,MO,H,M,1.6340000000000001,memory_run-01,extinction
415.466,3.0,CS-,animals/baldeagle.jpg,Old,acquisition,MO,H,M,1.7790000000000001,memory_run-01,baseline
476.583,3.0,CS-,animals/duck.jpg,Old,acquisition,MN,M,M,1.4869999999999999,memory_run-01,extinction
484.733,3.0,CS-,animals/shark.jpg,Old,acquisition,MN,M,M,2.5789999999999997,memory_run-01,extinction
18.334,3.0,CS-,animals/firebug.jpg,Old,acquisition,DO,H,H,1.034,memory_run-02,baseline
75.467,3.0,CS-,animals/mahimahi.jpg,Old,acquisition,MN,M,M,1.4780000000000002,memory_run-02,extinction
146.917,3.0,CS-,animals/herring.jpg,Old,acquisition,MN,M,M,2.484,memory_run-02,extinction
268.3,3.0,CS-,animals/dramaderry.jpg,Old,acquisition,MN,M,M,1.96,memory_run-02,baseline
330.334,3.0,CS-,animals/camel.jpg,Old,acquisition,DO,H,H,1.317,memory_run-02,baseline
444.31699999999995,3.0,CS-,animals/mink.jpg,Old,acquisition,DN,M,M,1.3030000000000002,memory_run-02,baseline
468.733,3.0,CS-,animals/mouse.jpg,Old,acquisition,MO,H,M,1.455,memory_run-02,baseline
476.86699999999996,3.0,CS-,animals/sheep.jpg,Old,acquisition,MN,M,M,1.4380000000000002,memory_run-02,baseline
103.96600000000001,3.0,CS-,animals/partridge.jpg,Old,acquisition,MO,H,M,2.151,memory_run-03,extinction
139.6,3.0,CS-,animals/anteater.jpg,Old,acquisition,MN,M,M,1.6340000000000001,memory_run-03,extinction
146.716,3.0,CS-,animals/carp.jpg,Old,acquisition,MN,M,M,1.19,memory_run-03,extinction
261.05,3.0,CS-,animals/turkey.jpg,Old,acquisition,MO,H,M,2.008,memory_run-03,baseline
387.216,3.0,CS-,animals/chipmunk.jpg,Old,acquisition,MN,M,M,1.945,memory_run-03,baseline
411.616,3.0,CS-,animals/seal.jpg,Old,acquisition,MN,M,M,1.0979999999999999,memory_run-03,acquisition
468.566,3.0,CS-,animals/brown_bear.jpg,Old,acquisition,MN,M,M,1.534,memory_run-03,extinction
476.68300000000005,3.0,CS-,animals/rabbit.jpg,Old,acquisition,,M,M,,memory_run-03,extinction
101.883,3.0,CS-,animals/zebra.jpg,Old,extinction,MO,H,M,1.65,memory_run-01,extinction
124.31700000000001,3.0,CS-,animals/aardvark.jpg,Old,extinction,MO,H,M,1.1340000000000001,memory_run-01,extinction
154.86700000000005,3.0,CS-,animals/skunk.jpg,Old,extinction,DO,H,H,1.296,memory_run-01,baseline
303.466,3.0,CS-,animals/finch.jpg,Old,extinction,MN,M,M,1.495,memory_run-01,baseline
333.0,3.0,CS-,animals/reindeer.jpg,Old,extinction,MO,H,M,1.83,memory_run-01,extinction
393.083,3.0,CS-,animals/llama.jpg,Old,extinction,MO,H,M,1.5119999999999998,memory_run-01,baseline
491.866,3.0,CS-,animals/rhino.jpg,Old,extinction,MO,H,M,2.065,memory_run-01,baseline
499.0,3.0,CS-,animals/elephantafrican.jpg,Old,extinction,MN,M,M,1.699,memory_run-01,extinction
32.6,3.0,CS-,animals/caterpillarhawkmoth.jpg,Old,extinction,DN,M,M,1.21,memory_run-02,baseline
89.76700000000002,3.0,CS-,animals/hyena.jpg,Old,extinction,DN,M,M,1.246,memory_run-02,baseline
154.05,3.0,CS-,animals/cricket.jpg,Old,extinction,DN,M,M,2.012,memory_run-02,extinction
168.317,3.0,CS-,animals/goldfish.jpg,Old,extinction,MN,M,M,1.15,memory_run-02,baseline
338.45,3.0,CS-,animals/marmot.jpg,Old,extinction,MN,M,M,1.315,memory_run-02,baseline
371.017,3.0,CS-,animals/flamingo.jpg,Old,extinction,MN,M,M,0.9329999999999999,memory_run-02,acquisition
485.0,3.0,CS-,animals/shrimp.jpg,Old,extinction,DN,M,M,1.062,memory_run-02,baseline
493.13300000000004,3.0,CS-,animals/horse.jpg,Old,extinction,MN,M,M,0.988,memory_run-02,extinction
61.216,3.0,CS-,animals/halibut.jpg,Old,extinction,MO,H,M,1.765,memory_run-03,extinction
75.46600000000002,3.0,CS-,animals/cranebug.jpg,Old,extinction,DO,H,H,1.276,memory_run-03,acquisition
175.283,3.0,CS-,animals/starfish.jpg,Old,extinction,DN,M,M,1.102,memory_run-03,acquisition
282.483,3.0,CS-,animals/canary.jpg,Old,extinction,MN,M,M,1.0090000000000001,memory_run-03,extinction
379.083,3.0,CS-,animals/perch.jpg,Old,extinction,MO,H,M,1.202,memory_run-03,extinction
395.349,3.0,CS-,animals/salmon.jpg,Old,extinction,MN,M,M,1.331,memory_run-03,extinction
484.833,3.0,CS-,animals/racoon.jpg,Old,extinction,MN,M,M,1.1440000000000001,memory_run-03,acquisition
492.983,3.0,CS-,animals/cat.jpg,Old,extinction,MO,H,M,1.6269999999999998,memory_run-03,extinction
19.317,3.0,CS-,animals/ladybug.jpg,New,foil,DN,CR,CR,2.339,memory_run-01,
64.2,3.0,CS-,animals/octopus.jpg,New,foil,DN,CR,CR,1.3840000000000001,memory_run-01,
72.333,3.0,CS-,animals/hermitcrab.jpg,New,foil,DN,CR,CR,1.063,memory_run-01,
116.167,3.0,CS-,animals/tortoise.jpg,New,foil,MN,CR,CR,1.24,memory_run-01,
179.3,3.0,CS-,animals/woodlouse.jpg,New,foil,MN,CR,CR,2.0869999999999997,memory_run-01,
219.033,3.0,CS-,animals/seaslug.jpg,New,foil,DN,CR,CR,0.9470000000000001,memory_run-01,
248.533,3.0,CS-,animals/flounder.jpg,New,foil,MO,FA,CR,1.669,memory_run-01,
288.2,3.0,CS-,animals/crane.jpg,New,foil,MN,CR,CR,1.6969999999999998,memory_run-01,
311.6,3.0,CS-,animals/koala.jpg,New,foil,MN,CR,CR,2.966,memory_run-01,
348.26599999999996,3.0,CS-,animals/monkey.jpg,New,foil,DN,CR,CR,2.101,memory_run-01,
407.333,3.0,CS-,animals/panda.jpg,New,foil,DN,CR,CR,1.264,memory_run-01,
423.583,3.0,CS-,animals/stickinsect.jpg,New,foil,DN,CR,CR,1.6580000000000001,memory_run-01,
553.9159999999998,3.0,CS-,animals/bullfrog.jpg,New,foil,MN,CR,CR,1.851,memory_run-01,
562.05,3.0,CS-,animals/waterdragon.jpg,New,foil,DN,CR,CR,2.009,memory_run-01,
569.2,3.0,CS-,animals/balloonfish.jpg,New,foil,DN,CR,CR,1.7930000000000001,memory_run-01,
577.3330000000002,3.0,CS-,animals/highlandcow.jpg,New,foil,MN,CR,CR,1.554,memory_run-01,
54.016999999999996,3.0,CS-,animals/crab.jpg,New,foil,DN,CR,CR,0.87,memory_run-02,
82.617,3.0,CS-,animals/caracal.jpg,New,foil,DN,CR,CR,1.46,memory_run-02,
96.917,3.0,CS-,animals/marlin.jpg,New,foil,DN,CR,CR,1.22,memory_run-02,
125.484,3.0,CS-,animals/beardeddragon.jpg,New,foil,DN,CR,CR,1.133,memory_run-02,
182.61700000000002,3.0,CS-,animals/orangutan.jpg,New,foil,DO,FA,FA,2.87,memory_run-02,
204.067,3.0,CS-,animals/wasp.jpg,New,foil,DN,CR,CR,1.6469999999999998,memory_run-02,
239.75,3.0,CS-,animals/armadillo.jpg,New,foil,MN,CR,CR,1.518,memory_run-02,
254.017,3.0,CS-,animals/earthworm.jpg,New,foil,DN,CR,CR,1.203,memory_run-02,
289.6670000000001,3.0,CS-,animals/malaysianjunglenymph.jpg,New,foil,MN,CR,CR,1.476,memory_run-02,
354.73400000000015,3.0,CS-,animals/rooster.jpg,New,foil,DN,CR,CR,2.454,memory_run-02,
362.88300000000004,3.0,CS-,animals/tragopan.jpg,New,foil,DN,CR,CR,1.018,memory_run-02,
379.15,3.0,CS-,animals/slug.jpg,New,foil,DN,CR,CR,1.308,memory_run-02,
550.05,3.0,CS-,animals/dove.jpg,New,foil,DN,CR,CR,1.126,memory_run-02,
558.1669999999998,3.0,CS-,animals/leafinsect.jpg,New,foil,MN,CR,CR,2.576,memory_run-02,
566.3,3.0,CS-,animals/stinkbug.jpg,New,foil,,CR,CR,,memory_run-02,
574.433,3.0,CS-,animals/owl.jpg,New,foil,MO,FA,CR,1.307,memory_run-02,
18.35,3.0,CS-,animals/clam.jpg,New,foil,DN,CR,CR,1.117,memory_run-03,
25.5,3.0,CS-,animals/gecko.jpg,New,foil,MN,CR,CR,1.386,memory_run-03,
82.6,3.0,CS-,animals/ibises.jpg,New,foil,DN,CR,CR,1.048,memory_run-03,
118.21600000000001,3.0,CS-,animals/clownfish.jpg,New,foil,MN,CR,CR,1.194,memory_run-03,
161.0,3.0,CS-,animals/toucan.jpg,New,foil,DN,CR,CR,1.012,memory_run-03,
218.166,3.0,CS-,animals/vulture.jpg,New,foil,DN,CR,CR,1.7890000000000001,memory_run-03,
225.333,3.0,CS-,animals/deer.jpg,New,foil,MN,CR,CR,0.8370000000000001,memory_run-03,
246.783,3.0,CS-,animals/macaw.jpg,New,foil,MN,CR,CR,1.071,memory_run-03,
305.883,3.0,CS-,animals/cod.jpg,New,foil,MO,FA,CR,1.341,memory_run-03,
330.26599999999996,3.0,CS-,animals/lizard.jpg,New,foil,MO,FA,CR,1.193,memory_run-03,
338.3830000000001,3.0,CS-,animals/dockbug2.jpg,New,foil,DN,CR,CR,1.14,memory_run-03,
403.466,3.0,CS-,animals/emu.jpg,New,foil,MN,CR,CR,2.006,memory_run-03,
549.883,3.0,CS-,animals/lion.jpg,New,foil,MN,CR,CR,1.662,memory_run-03,
558.033,3.0,CS-,animals/kangaroo.jpg,New,foil,MN,CR,CR,1.16,memory_run-03,
566.149,3.0,CS-,animals/penguin.jpg,New,foil,MN,CR,CR,1.143,memory_run-03,
574.283,3.0,CS-,animals/lobsterspiny.jpg,New,foil,DN,CR,CR,1.841,memory_run-03,
